"trial_type","trial_index","time_elapsed","internal_node_id","PUNS_ID","session_number","session_phase","session_day","session_slot","ema_start_date","ema_post_start_date","experiment_start","browser","screen_width","screen_height","timezone_offset","view_history","rt","stimulus","response","which_experiment_phase","trial_number","left_word","right_word","valence","left_base_rating","right_base_rating","left_valence","right_valence","abs_diff","participant_response","chosen_side","valid_response"
"pavlovia","0","1447","0.0-0.0","1065","15","pre","5","evening","2026-05-05","2026-05-19","2026-05-10T03:09:36.626Z","Mozilla/5.0 (iPhone; CPU iPhone OS 18_7 like Mac OS X) AppleWebKit/605.1.15 (KHTML, like Gecko) Mobile/15E148","396","714","240","","","","","","","","","","","","","","","","",""
"instructions","1","4101","0.0-1.0","1065","15","pre","5","evening","2026-05-05","2026-05-19","2026-05-10T03:09:36.626Z","Mozilla/5.0 (iPhone; CPU iPhone OS 18_7 like Mac OS X) AppleWebKit/605.1.15 (KHTML, like Gecko) Mobile/15E148","396","714","240","[{""page_index"":0,""viewing_time"":837},{""page_index"":1,""viewing_time"":592},{""page_index"":2,""viewing_time"":566},{""page_index"":3,""viewing_time"":652}]","2648","","","","","","","","","","","","","","",""
"html-keyboard-response","2","4906","0.0-2.0-0.0","1065","15","pre","5","evening","2026-05-05","2026-05-19","2026-05-10T03:09:36.626Z","Mozilla/5.0 (iPhone; CPU iPhone OS 18_7 like Mac OS X) AppleWebKit/605.1.15 (KHTML, like Gecko) Mobile/15E148","396","714","240","","null","<div style=""font-size:60px;"">+</div>","null","fixation","","","","","","","","","","","",""
"html-button-response","3","6208","0.0-2.0-1.0","1065","15","pre","5","evening","2026-05-05","2026-05-19","2026-05-10T03:09:36.626Z","Mozilla/5.0 (iPhone; CPU iPhone OS 18_7 like Mac OS X) AppleWebKit/605.1.15 (KHTML, like Gecko) Mobile/15E148","396","714","240","","1293","<div class=""prompt"" style=""font-size:24px; margin-bottom:20px;"">Which word describes you more?</div>","0","pairing","1","insecure","disgrace","NegNeg","75","0","negative","negative","75","insecure","left","true"
"html-keyboard-response","4","7012","0.0-2.0-0.1","1065","15","pre","5","evening","2026-05-05","2026-05-19","2026-05-10T03:09:36.626Z","Mozilla/5.0 (iPhone; CPU iPhone OS 18_7 like Mac OS X) AppleWebKit/605.1.15 (KHTML, like Gecko) Mobile/15E148","396","714","240","","null","<div style=""font-size:60px;"">+</div>","null","fixation","","","","","","","","","","","",""
"html-button-response","5","8001","0.0-2.0-1.1","1065","15","pre","5","evening","2026-05-05","2026-05-19","2026-05-10T03:09:36.626Z","Mozilla/5.0 (iPhone; CPU iPhone OS 18_7 like Mac OS X) AppleWebKit/605.1.15 (KHTML, like Gecko) Mobile/15E148","396","714","240","","984","<div class=""prompt"" style=""font-size:24px; margin-bottom:20px;"">Which word describes you more?</div>","0","pairing","2","stingy","talented","PosNeg","96","55","negative","positive","41","stingy","left","true"
"html-keyboard-response","6","8803","0.0-2.0-0.2","1065","15","pre","5","evening","2026-05-05","2026-05-19","2026-05-10T03:09:36.626Z","Mozilla/5.0 (iPhone; CPU iPhone OS 18_7 like Mac OS X) AppleWebKit/605.1.15 (KHTML, like Gecko) Mobile/15E148","396","714","240","","null","<div style=""font-size:60px;"">+</div>","null","fixation","","","","","","","","","","","",""
"html-button-response","7","9918","0.0-2.0-1.2","1065","15","pre","5","evening","2026-05-05","2026-05-19","2026-05-10T03:09:36.626Z","Mozilla/5.0 (iPhone; CPU iPhone OS 18_7 like Mac OS X) AppleWebKit/605.1.15 (KHTML, like Gecko) Mobile/15E148","396","714","240","","1112","<div class=""prompt"" style=""font-size:24px; margin-bottom:20px;"">Which word describes you more?</div>","1","pairing","3","merciful","asset","PosPos","84","58","positive","positive","26","asset","right","true"
"html-keyboard-response","8","10721","0.0-2.0-0.3","1065","15","pre","5","evening","2026-05-05","2026-05-19","2026-05-10T03:09:36.626Z","Mozilla/5.0 (iPhone; CPU iPhone OS 18_7 like Mac OS X) AppleWebKit/605.1.15 (KHTML, like Gecko) Mobile/15E148","396","714","240","","null","<div style=""font-size:60px;"">+</div>","null","fixation","","","","","","","","","","","",""
"html-button-response","9","11484","0.0-2.0-1.3","1065","15","pre","5","evening","2026-05-05","2026-05-19","2026-05-10T03:09:36.626Z","Mozilla/5.0 (iPhone; CPU iPhone OS 18_7 like Mac OS X) AppleWebKit/605.1.15 (KHTML, like Gecko) Mobile/15E148","396","714","240","","760","<div class=""prompt"" style=""font-size:24px; margin-bottom:20px;"">Which word describes you more?</div>","1","pairing","4","rude","irritating","NegNeg","0","35","negative","negative","35","irritating","right","true"
"html-keyboard-response","10","12286","0.0-2.0-0.4","1065","15","pre","5","evening","2026-05-05","2026-05-19","2026-05-10T03:09:36.626Z","Mozilla/5.0 (iPhone; CPU iPhone OS 18_7 like Mac OS X) AppleWebKit/605.1.15 (KHTML, like Gecko) Mobile/15E148","396","714","240","","null","<div style=""font-size:60px;"">+</div>","null","fixation","","","","","","","","","","","",""
"html-button-response","11","13068","0.0-2.0-1.4","1065","15","pre","5","evening","2026-05-05","2026-05-19","2026-05-10T03:09:36.626Z","Mozilla/5.0 (iPhone; CPU iPhone OS 18_7 like Mac OS X) AppleWebKit/605.1.15 (KHTML, like Gecko) Mobile/15E148","396","714","240","","779","<div class=""prompt"" style=""font-size:24px; margin-bottom:20px;"">Which word describes you more?</div>","1","pairing","5","toxic","grateful","PosNeg","9","100","negative","positive","91","grateful","right","true"
"html-keyboard-response","12","13871","0.0-2.0-0.5","1065","15","pre","5","evening","2026-05-05","2026-05-19","2026-05-10T03:09:36.626Z","Mozilla/5.0 (iPhone; CPU iPhone OS 18_7 like Mac OS X) AppleWebKit/605.1.15 (KHTML, like Gecko) Mobile/15E148","396","714","240","","null","<div style=""font-size:60px;"">+</div>","null","fixation","","","","","","","","","","","",""
"html-button-response","13","14752","0.0-2.0-1.5","1065","15","pre","5","evening","2026-05-05","2026-05-19","2026-05-10T03:09:36.626Z","Mozilla/5.0 (iPhone; CPU iPhone OS 18_7 like Mac OS X) AppleWebKit/605.1.15 (KHTML, like Gecko) Mobile/15E148","396","714","240","","879","<div class=""prompt"" style=""font-size:24px; margin-bottom:20px;"">Which word describes you more?</div>","0","pairing","6","hopeful","flawless","PosPos","93","0","positive","positive","93","hopeful","left","true"
"html-keyboard-response","14","15554","0.0-2.0-0.6","1065","15","pre","5","evening","2026-05-05","2026-05-19","2026-05-10T03:09:36.626Z","Mozilla/5.0 (iPhone; CPU iPhone OS 18_7 like Mac OS X) AppleWebKit/605.1.15 (KHTML, like Gecko) Mobile/15E148","396","714","240","","null","<div style=""font-size:60px;"">+</div>","null","fixation","","","","","","","","","","","",""
"html-button-response","15","16501","0.0-2.0-1.6","1065","15","pre","5","evening","2026-05-05","2026-05-19","2026-05-10T03:09:36.626Z","Mozilla/5.0 (iPhone; CPU iPhone OS 18_7 like Mac OS X) AppleWebKit/605.1.15 (KHTML, like Gecko) Mobile/15E148","396","714","240","","942","<div class=""prompt"" style=""font-size:24px; margin-bottom:20px;"">Which word describes you more?</div>","0","pairing","7","legendary","awkward","PosNeg","11","86","positive","negative","75","legendary","left","true"
"html-keyboard-response","16","17304","0.0-2.0-0.7","1065","15","pre","5","evening","2026-05-05","2026-05-19","2026-05-10T03:09:36.626Z","Mozilla/5.0 (iPhone; CPU iPhone OS 18_7 like Mac OS X) AppleWebKit/605.1.15 (KHTML, like Gecko) Mobile/15E148","396","714","240","","null","<div style=""font-size:60px;"">+</div>","null","fixation","","","","","","","","","","","",""
"html-button-response","17","18402","0.0-2.0-1.7","1065","15","pre","5","evening","2026-05-05","2026-05-19","2026-05-10T03:09:36.626Z","Mozilla/5.0 (iPhone; CPU iPhone OS 18_7 like Mac OS X) AppleWebKit/605.1.15 (KHTML, like Gecko) Mobile/15E148","396","714","240","","1096","<div class=""prompt"" style=""font-size:24px; margin-bottom:20px;"">Which word describes you more?</div>","1","pairing","8","irresponsible","gloomy","NegNeg","33","47","negative","negative","14","gloomy","right","true"
"html-keyboard-response","18","19205","0.0-2.0-0.8","1065","15","pre","5","evening","2026-05-05","2026-05-19","2026-05-10T03:09:36.626Z","Mozilla/5.0 (iPhone; CPU iPhone OS 18_7 like Mac OS X) AppleWebKit/605.1.15 (KHTML, like Gecko) Mobile/15E148","396","714","240","","null","<div style=""font-size:60px;"">+</div>","null","fixation","","","","","","","","","","","",""
"html-button-response","19","20085","0.0-2.0-1.8","1065","15","pre","5","evening","2026-05-05","2026-05-19","2026-05-10T03:09:36.626Z","Mozilla/5.0 (iPhone; CPU iPhone OS 18_7 like Mac OS X) AppleWebKit/605.1.15 (KHTML, like Gecko) Mobile/15E148","396","714","240","","878","<div class=""prompt"" style=""font-size:24px; margin-bottom:20px;"">Which word describes you more?</div>","1","pairing","9","regretful","spectacular","PosNeg","56","58","negative","positive","2","spectacular","right","true"
"html-keyboard-response","20","20887","0.0-2.0-0.9","1065","15","pre","5","evening","2026-05-05","2026-05-19","2026-05-10T03:09:36.626Z","Mozilla/5.0 (iPhone; CPU iPhone OS 18_7 like Mac OS X) AppleWebKit/605.1.15 (KHTML, like Gecko) Mobile/15E148","396","714","240","","null","<div style=""font-size:60px;"">+</div>","null","fixation","","","","","","","","","","","",""
"html-button-response","21","21735","0.0-2.0-1.9","1065","15","pre","5","evening","2026-05-05","2026-05-19","2026-05-10T03:09:36.626Z","Mozilla/5.0 (iPhone; CPU iPhone OS 18_7 like Mac OS X) AppleWebKit/605.1.15 (KHTML, like Gecko) Mobile/15E148","396","714","240","","845","<div class=""prompt"" style=""font-size:24px; margin-bottom:20px;"">Which word describes you more?</div>","1","pairing","10","dull","attractive","PosNeg","57","48","negative","positive","9","attractive","right","true"
"html-keyboard-response","22","22537","0.0-2.0-0.10","1065","15","pre","5","evening","2026-05-05","2026-05-19","2026-05-10T03:09:36.626Z","Mozilla/5.0 (iPhone; CPU iPhone OS 18_7 like Mac OS X) AppleWebKit/605.1.15 (KHTML, like Gecko) Mobile/15E148","396","714","240","","null","<div style=""font-size:60px;"">+</div>","null","fixation","","","","","","","","","","","",""
"html-button-response","23","23405","0.0-2.0-1.10","1065","15","pre","5","evening","2026-05-05","2026-05-19","2026-05-10T03:09:36.626Z","Mozilla/5.0 (iPhone; CPU iPhone OS 18_7 like Mac OS X) AppleWebKit/605.1.15 (KHTML, like Gecko) Mobile/15E148","396","714","240","","865","<div class=""prompt"" style=""font-size:24px; margin-bottom:20px;"">Which word describes you more?</div>","0","pairing","11","humorous","boring","PosNeg","100","60","positive","negative","40","humorous","left","true"
"html-keyboard-response","24","24208","0.0-2.0-0.11","1065","15","pre","5","evening","2026-05-05","2026-05-19","2026-05-10T03:09:36.626Z","Mozilla/5.0 (iPhone; CPU iPhone OS 18_7 like Mac OS X) AppleWebKit/605.1.15 (KHTML, like Gecko) Mobile/15E148","396","714","240","","null","<div style=""font-size:60px;"">+</div>","null","fixation","","","","","","","","","","","",""
"html-button-response","25","25002","0.0-2.0-1.11","1065","15","pre","5","evening","2026-05-05","2026-05-19","2026-05-10T03:09:36.626Z","Mozilla/5.0 (iPhone; CPU iPhone OS 18_7 like Mac OS X) AppleWebKit/605.1.15 (KHTML, like Gecko) Mobile/15E148","396","714","240","","791","<div class=""prompt"" style=""font-size:24px; margin-bottom:20px;"">Which word describes you more?</div>","1","pairing","12","anxious","flawless","PosNeg","81","0","negative","positive","81","flawless","right","true"
"html-keyboard-response","26","25805","0.0-2.0-0.12","1065","15","pre","5","evening","2026-05-05","2026-05-19","2026-05-10T03:09:36.626Z","Mozilla/5.0 (iPhone; CPU iPhone OS 18_7 like Mac OS X) AppleWebKit/605.1.15 (KHTML, like Gecko) Mobile/15E148","396","714","240","","null","<div style=""font-size:60px;"">+</div>","null","fixation","","","","","","","","","","","",""
"html-button-response","27","26549","0.0-2.0-1.12","1065","15","pre","5","evening","2026-05-05","2026-05-19","2026-05-10T03:09:36.626Z","Mozilla/5.0 (iPhone; CPU iPhone OS 18_7 like Mac OS X) AppleWebKit/605.1.15 (KHTML, like Gecko) Mobile/15E148","396","714","240","","742","<div class=""prompt"" style=""font-size:24px; margin-bottom:20px;"">Which word describes you more?</div>","0","pairing","13","healthy","eloquent","PosPos","36","73","positive","positive","37","healthy","left","true"
"html-keyboard-response","28","27351","0.0-2.0-0.13","1065","15","pre","5","evening","2026-05-05","2026-05-19","2026-05-10T03:09:36.626Z","Mozilla/5.0 (iPhone; CPU iPhone OS 18_7 like Mac OS X) AppleWebKit/605.1.15 (KHTML, like Gecko) Mobile/15E148","396","714","240","","null","<div style=""font-size:60px;"">+</div>","null","fixation","","","","","","","","","","","",""
"html-button-response","29","28201","0.0-2.0-1.13","1065","15","pre","5","evening","2026-05-05","2026-05-19","2026-05-10T03:09:36.626Z","Mozilla/5.0 (iPhone; CPU iPhone OS 18_7 like Mac OS X) AppleWebKit/605.1.15 (KHTML, like Gecko) Mobile/15E148","396","714","240","","848","<div class=""prompt"" style=""font-size:24px; margin-bottom:20px;"">Which word describes you more?</div>","0","pairing","14","brave","quitter","PosNeg","60","50","positive","negative","10","brave","left","true"
"html-keyboard-response","30","29004","0.0-2.0-0.14","1065","15","pre","5","evening","2026-05-05","2026-05-19","2026-05-10T03:09:36.626Z","Mozilla/5.0 (iPhone; CPU iPhone OS 18_7 like Mac OS X) AppleWebKit/605.1.15 (KHTML, like Gecko) Mobile/15E148","396","714","240","","null","<div style=""font-size:60px;"">+</div>","null","fixation","","","","","","","","","","","",""
"html-button-response","31","30002","0.0-2.0-1.14","1065","15","pre","5","evening","2026-05-05","2026-05-19","2026-05-10T03:09:36.626Z","Mozilla/5.0 (iPhone; CPU iPhone OS 18_7 like Mac OS X) AppleWebKit/605.1.15 (KHTML, like Gecko) Mobile/15E148","396","714","240","","996","<div class=""prompt"" style=""font-size:24px; margin-bottom:20px;"">Which word describes you more?</div>","1","pairing","15","heartbroken","stingy","NegNeg","0","96","negative","negative","96","stingy","right","true"
"html-keyboard-response","32","30805","0.0-2.0-0.15","1065","15","pre","5","evening","2026-05-05","2026-05-19","2026-05-10T03:09:36.626Z","Mozilla/5.0 (iPhone; CPU iPhone OS 18_7 like Mac OS X) AppleWebKit/605.1.15 (KHTML, like Gecko) Mobile/15E148","396","714","240","","null","<div style=""font-size:60px;"">+</div>","null","fixation","","","","","","","","","","","",""
"html-button-response","33","31651","0.0-2.0-1.15","1065","15","pre","5","evening","2026-05-05","2026-05-19","2026-05-10T03:09:36.626Z","Mozilla/5.0 (iPhone; CPU iPhone OS 18_7 like Mac OS X) AppleWebKit/605.1.15 (KHTML, like Gecko) Mobile/15E148","396","714","240","","838","<div class=""prompt"" style=""font-size:24px; margin-bottom:20px;"">Which word describes you more?</div>","0","pairing","16","admired","outcast","PosNeg","50","61","positive","negative","11","admired","left","true"
"html-keyboard-response","34","32463","0.0-2.0-0.16","1065","15","pre","5","evening","2026-05-05","2026-05-19","2026-05-10T03:09:36.626Z","Mozilla/5.0 (iPhone; CPU iPhone OS 18_7 like Mac OS X) AppleWebKit/605.1.15 (KHTML, like Gecko) Mobile/15E148","396","714","240","","null","<div style=""font-size:60px;"">+</div>","null","fixation","","","","","","","","","","","",""
"html-button-response","35","33248","0.0-2.0-1.16","1065","15","pre","5","evening","2026-05-05","2026-05-19","2026-05-10T03:09:36.626Z","Mozilla/5.0 (iPhone; CPU iPhone OS 18_7 like Mac OS X) AppleWebKit/605.1.15 (KHTML, like Gecko) Mobile/15E148","396","714","240","","780","<div class=""prompt"" style=""font-size:24px; margin-bottom:20px;"">Which word describes you more?</div>","0","pairing","17","authentic","violent","PosNeg","75","0","positive","negative","75","authentic","left","true"
"html-keyboard-response","36","34051","0.0-2.0-0.17","1065","15","pre","5","evening","2026-05-05","2026-05-19","2026-05-10T03:09:36.626Z","Mozilla/5.0 (iPhone; CPU iPhone OS 18_7 like Mac OS X) AppleWebKit/605.1.15 (KHTML, like Gecko) Mobile/15E148","396","714","240","","null","<div style=""font-size:60px;"">+</div>","null","fixation","","","","","","","","","","","",""
"html-button-response","37","34850","0.0-2.0-1.17","1065","15","pre","5","evening","2026-05-05","2026-05-19","2026-05-10T03:09:36.626Z","Mozilla/5.0 (iPhone; CPU iPhone OS 18_7 like Mac OS X) AppleWebKit/605.1.15 (KHTML, like Gecko) Mobile/15E148","396","714","240","","798","<div class=""prompt"" style=""font-size:24px; margin-bottom:20px;"">Which word describes you more?</div>","0","pairing","18","adorable","credible","PosPos","59","63","positive","positive","4","adorable","left","true"
"html-keyboard-response","38","35653","0.0-2.0-0.18","1065","15","pre","5","evening","2026-05-05","2026-05-19","2026-05-10T03:09:36.626Z","Mozilla/5.0 (iPhone; CPU iPhone OS 18_7 like Mac OS X) AppleWebKit/605.1.15 (KHTML, like Gecko) Mobile/15E148","396","714","240","","null","<div style=""font-size:60px;"">+</div>","null","fixation","","","","","","","","","","","",""
"html-button-response","39","36586","0.0-2.0-1.18","1065","15","pre","5","evening","2026-05-05","2026-05-19","2026-05-10T03:09:36.626Z","Mozilla/5.0 (iPhone; CPU iPhone OS 18_7 like Mac OS X) AppleWebKit/605.1.15 (KHTML, like Gecko) Mobile/15E148","396","714","240","","917","<div class=""prompt"" style=""font-size:24px; margin-bottom:20px;"">Which word describes you more?</div>","1","pairing","19","vengeful","skilled","PosNeg","28","64","negative","positive","36","skilled","right","true"
"html-keyboard-response","40","37388","0.0-2.0-0.19","1065","15","pre","5","evening","2026-05-05","2026-05-19","2026-05-10T03:09:36.626Z","Mozilla/5.0 (iPhone; CPU iPhone OS 18_7 like Mac OS X) AppleWebKit/605.1.15 (KHTML, like Gecko) Mobile/15E148","396","714","240","","null","<div style=""font-size:60px;"">+</div>","null","fixation","","","","","","","","","","","",""
"html-button-response","41","38632","0.0-2.0-1.19","1065","15","pre","5","evening","2026-05-05","2026-05-19","2026-05-10T03:09:36.626Z","Mozilla/5.0 (iPhone; CPU iPhone OS 18_7 like Mac OS X) AppleWebKit/605.1.15 (KHTML, like Gecko) Mobile/15E148","396","714","240","","1243","<div class=""prompt"" style=""font-size:24px; margin-bottom:20px;"">Which word describes you more?</div>","0","pairing","20","visionary","virtuous","PosPos","73","19","positive","positive","54","visionary","left","true"
"html-keyboard-response","42","39435","0.0-2.0-0.20","1065","15","pre","5","evening","2026-05-05","2026-05-19","2026-05-10T03:09:36.626Z","Mozilla/5.0 (iPhone; CPU iPhone OS 18_7 like Mac OS X) AppleWebKit/605.1.15 (KHTML, like Gecko) Mobile/15E148","396","714","240","","null","<div style=""font-size:60px;"">+</div>","null","fixation","","","","","","","","","","","",""
"html-button-response","43","40948","0.0-2.0-1.20","1065","15","pre","5","evening","2026-05-05","2026-05-19","2026-05-10T03:09:36.626Z","Mozilla/5.0 (iPhone; CPU iPhone OS 18_7 like Mac OS X) AppleWebKit/605.1.15 (KHTML, like Gecko) Mobile/15E148","396","714","240","","1511","<div class=""prompt"" style=""font-size:24px; margin-bottom:20px;"">Which word describes you more?</div>","0","pairing","21","unforgivable","degenerate","NegNeg","31","0","negative","negative","31","unforgivable","left","true"
"html-keyboard-response","44","41750","0.0-2.0-0.21","1065","15","pre","5","evening","2026-05-05","2026-05-19","2026-05-10T03:09:36.626Z","Mozilla/5.0 (iPhone; CPU iPhone OS 18_7 like Mac OS X) AppleWebKit/605.1.15 (KHTML, like Gecko) Mobile/15E148","396","714","240","","null","<div style=""font-size:60px;"">+</div>","null","fixation","","","","","","","","","","","",""
"html-button-response","45","42670","0.0-2.0-1.21","1065","15","pre","5","evening","2026-05-05","2026-05-19","2026-05-10T03:09:36.626Z","Mozilla/5.0 (iPhone; CPU iPhone OS 18_7 like Mac OS X) AppleWebKit/605.1.15 (KHTML, like Gecko) Mobile/15E148","396","714","240","","918","<div class=""prompt"" style=""font-size:24px; margin-bottom:20px;"">Which word describes you more?</div>","1","pairing","22","virtuous","outcast","PosNeg","19","61","positive","negative","42","outcast","right","true"
"html-keyboard-response","46","43472","0.0-2.0-0.22","1065","15","pre","5","evening","2026-05-05","2026-05-19","2026-05-10T03:09:36.626Z","Mozilla/5.0 (iPhone; CPU iPhone OS 18_7 like Mac OS X) AppleWebKit/605.1.15 (KHTML, like Gecko) Mobile/15E148","396","714","240","","null","<div style=""font-size:60px;"">+</div>","null","fixation","","","","","","","","","","","",""
"html-button-response","47","44503","0.0-2.0-1.22","1065","15","pre","5","evening","2026-05-05","2026-05-19","2026-05-10T03:09:36.626Z","Mozilla/5.0 (iPhone; CPU iPhone OS 18_7 like Mac OS X) AppleWebKit/605.1.15 (KHTML, like Gecko) Mobile/15E148","396","714","240","","1029","<div class=""prompt"" style=""font-size:24px; margin-bottom:20px;"">Which word describes you more?</div>","1","pairing","23","virtuous","safe","PosPos","19","88","positive","positive","69","safe","right","true"
"html-keyboard-response","48","45305","0.0-2.0-0.23","1065","15","pre","5","evening","2026-05-05","2026-05-19","2026-05-10T03:09:36.626Z","Mozilla/5.0 (iPhone; CPU iPhone OS 18_7 like Mac OS X) AppleWebKit/605.1.15 (KHTML, like Gecko) Mobile/15E148","396","714","240","","null","<div style=""font-size:60px;"">+</div>","null","fixation","","","","","","","","","","","",""
"html-button-response","49","46471","0.0-2.0-1.23","1065","15","pre","5","evening","2026-05-05","2026-05-19","2026-05-10T03:09:36.626Z","Mozilla/5.0 (iPhone; CPU iPhone OS 18_7 like Mac OS X) AppleWebKit/605.1.15 (KHTML, like Gecko) Mobile/15E148","396","714","240","","1163","<div class=""prompt"" style=""font-size:24px; margin-bottom:20px;"">Which word describes you more?</div>","0","pairing","24","burden","traitor","NegNeg","60","0","negative","negative","60","burden","left","true"
"instructions","50","47186","0.0-3.0","1065","15","pre","5","evening","2026-05-05","2026-05-19","2026-05-10T03:09:36.626Z","Mozilla/5.0 (iPhone; CPU iPhone OS 18_7 like Mac OS X) AppleWebKit/605.1.15 (KHTML, like Gecko) Mobile/15E148","396","714","240","[{""page_index"":0,""viewing_time"":712}]","712","","","","","","","","","","","","","","",""
