"trial_type","trial_index","time_elapsed","internal_node_id","PUNS_ID","session_number","session_phase","session_day","session_slot","ema_start_date","ema_post_start_date","experiment_start","browser","screen_width","screen_height","timezone_offset","view_history","rt","stimulus","response","which_experiment_phase","trial_number","left_word","right_word","valence","left_base_rating","right_base_rating","left_valence","right_valence","abs_diff","participant_response","chosen_side","valid_response"
"pavlovia","0","1515","0.0-0.0","1067","25","pre","9","morning","2026-04-08","2026-04-21","2026-04-16T04:14:08.648Z","Mozilla/5.0 (iPhone; CPU iPhone OS 18_7 like Mac OS X) AppleWebKit/605.1.15 (KHTML, like Gecko) Mobile/15E148","358","632","240","","","","","","","","","","","","","","","","",""
"instructions","1","4984","0.0-1.0","1067","25","pre","9","morning","2026-04-08","2026-04-21","2026-04-16T04:14:08.648Z","Mozilla/5.0 (iPhone; CPU iPhone OS 18_7 like Mac OS X) AppleWebKit/605.1.15 (KHTML, like Gecko) Mobile/15E148","358","632","240","[{""page_index"":0,""viewing_time"":676},{""page_index"":1,""viewing_time"":451},{""page_index"":2,""viewing_time"":1672},{""page_index"":3,""viewing_time"":662}]","3463","","","","","","","","","","","","","","",""
"html-keyboard-response","2","5789","0.0-2.0-0.0","1067","25","pre","9","morning","2026-04-08","2026-04-21","2026-04-16T04:14:08.648Z","Mozilla/5.0 (iPhone; CPU iPhone OS 18_7 like Mac OS X) AppleWebKit/605.1.15 (KHTML, like Gecko) Mobile/15E148","358","632","240","","null","<div style=""font-size:60px;"">+</div>","null","fixation","","","","","","","","","","","",""
"html-button-response","3","6802","0.0-2.0-1.0","1067","25","pre","9","morning","2026-04-08","2026-04-21","2026-04-16T04:14:08.648Z","Mozilla/5.0 (iPhone; CPU iPhone OS 18_7 like Mac OS X) AppleWebKit/605.1.15 (KHTML, like Gecko) Mobile/15E148","358","632","240","","1007","<div class=""prompt"" style=""font-size:24px; margin-bottom:20px;"">Which word describes you more?</div>","1","pairing","1","toxic","enthusiastic","PosNeg","39","92","negative","positive","53","enthusiastic","right","true"
"html-keyboard-response","4","7605","0.0-2.0-0.1","1067","25","pre","9","morning","2026-04-08","2026-04-21","2026-04-16T04:14:08.648Z","Mozilla/5.0 (iPhone; CPU iPhone OS 18_7 like Mac OS X) AppleWebKit/605.1.15 (KHTML, like Gecko) Mobile/15E148","358","632","240","","null","<div style=""font-size:60px;"">+</div>","null","fixation","","","","","","","","","","","",""
"html-button-response","5","8499","0.0-2.0-1.1","1067","25","pre","9","morning","2026-04-08","2026-04-21","2026-04-16T04:14:08.648Z","Mozilla/5.0 (iPhone; CPU iPhone OS 18_7 like Mac OS X) AppleWebKit/605.1.15 (KHTML, like Gecko) Mobile/15E148","358","632","240","","887","<div class=""prompt"" style=""font-size:24px; margin-bottom:20px;"">Which word describes you more?</div>","1","pairing","2","patient","smiley","PosPos","32","100","positive","positive","68","smiley","right","true"
"html-keyboard-response","6","9302","0.0-2.0-0.2","1067","25","pre","9","morning","2026-04-08","2026-04-21","2026-04-16T04:14:08.648Z","Mozilla/5.0 (iPhone; CPU iPhone OS 18_7 like Mac OS X) AppleWebKit/605.1.15 (KHTML, like Gecko) Mobile/15E148","358","632","240","","null","<div style=""font-size:60px;"">+</div>","null","fixation","","","","","","","","","","","",""
"html-button-response","7","10295","0.0-2.0-1.2","1067","25","pre","9","morning","2026-04-08","2026-04-21","2026-04-16T04:14:08.648Z","Mozilla/5.0 (iPhone; CPU iPhone OS 18_7 like Mac OS X) AppleWebKit/605.1.15 (KHTML, like Gecko) Mobile/15E148","358","632","240","","991","<div class=""prompt"" style=""font-size:24px; margin-bottom:20px;"">Which word describes you more?</div>","1","pairing","3","arrogant","spontaneous","PosNeg","87","72","negative","positive","15","spontaneous","right","true"
"html-keyboard-response","8","11098","0.0-2.0-0.3","1067","25","pre","9","morning","2026-04-08","2026-04-21","2026-04-16T04:14:08.648Z","Mozilla/5.0 (iPhone; CPU iPhone OS 18_7 like Mac OS X) AppleWebKit/605.1.15 (KHTML, like Gecko) Mobile/15E148","358","632","240","","null","<div style=""font-size:60px;"">+</div>","null","fixation","","","","","","","","","","","",""
"html-button-response","9","12116","0.0-2.0-1.3","1067","25","pre","9","morning","2026-04-08","2026-04-21","2026-04-16T04:14:08.648Z","Mozilla/5.0 (iPhone; CPU iPhone OS 18_7 like Mac OS X) AppleWebKit/605.1.15 (KHTML, like Gecko) Mobile/15E148","358","632","240","","1016","<div class=""prompt"" style=""font-size:24px; margin-bottom:20px;"">Which word describes you more?</div>","0","pairing","4","energetic","heartbroken","PosNeg","86","0","positive","negative","86","energetic","left","true"
"html-keyboard-response","10","12919","0.0-2.0-0.4","1067","25","pre","9","morning","2026-04-08","2026-04-21","2026-04-16T04:14:08.648Z","Mozilla/5.0 (iPhone; CPU iPhone OS 18_7 like Mac OS X) AppleWebKit/605.1.15 (KHTML, like Gecko) Mobile/15E148","358","632","240","","null","<div style=""font-size:60px;"">+</div>","null","fixation","","","","","","","","","","","",""
"html-button-response","11","14299","0.0-2.0-1.4","1067","25","pre","9","morning","2026-04-08","2026-04-21","2026-04-16T04:14:08.648Z","Mozilla/5.0 (iPhone; CPU iPhone OS 18_7 like Mac OS X) AppleWebKit/605.1.15 (KHTML, like Gecko) Mobile/15E148","358","632","240","","1378","<div class=""prompt"" style=""font-size:24px; margin-bottom:20px;"">Which word describes you more?</div>","1","pairing","5","disgrace","devoted","PosNeg","12","87","negative","positive","75","devoted","right","true"
"html-keyboard-response","12","15102","0.0-2.0-0.5","1067","25","pre","9","morning","2026-04-08","2026-04-21","2026-04-16T04:14:08.648Z","Mozilla/5.0 (iPhone; CPU iPhone OS 18_7 like Mac OS X) AppleWebKit/605.1.15 (KHTML, like Gecko) Mobile/15E148","358","632","240","","null","<div style=""font-size:60px;"">+</div>","null","fixation","","","","","","","","","","","",""
"html-button-response","13","15950","0.0-2.0-1.5","1067","25","pre","9","morning","2026-04-08","2026-04-21","2026-04-16T04:14:08.648Z","Mozilla/5.0 (iPhone; CPU iPhone OS 18_7 like Mac OS X) AppleWebKit/605.1.15 (KHTML, like Gecko) Mobile/15E148","358","632","240","","845","<div class=""prompt"" style=""font-size:24px; margin-bottom:20px;"">Which word describes you more?</div>","1","pairing","6","failure","spectacular","PosNeg","6","67","negative","positive","61","spectacular","right","true"
"html-keyboard-response","14","16753","0.0-2.0-0.6","1067","25","pre","9","morning","2026-04-08","2026-04-21","2026-04-16T04:14:08.648Z","Mozilla/5.0 (iPhone; CPU iPhone OS 18_7 like Mac OS X) AppleWebKit/605.1.15 (KHTML, like Gecko) Mobile/15E148","358","632","240","","null","<div style=""font-size:60px;"">+</div>","null","fixation","","","","","","","","","","","",""
"html-button-response","15","17633","0.0-2.0-1.6","1067","25","pre","9","morning","2026-04-08","2026-04-21","2026-04-16T04:14:08.648Z","Mozilla/5.0 (iPhone; CPU iPhone OS 18_7 like Mac OS X) AppleWebKit/605.1.15 (KHTML, like Gecko) Mobile/15E148","358","632","240","","876","<div class=""prompt"" style=""font-size:24px; margin-bottom:20px;"">Which word describes you more?</div>","1","pairing","7","vengeful","legendary","PosNeg","73","36","negative","positive","37","legendary","right","true"
"html-keyboard-response","16","18437","0.0-2.0-0.7","1067","25","pre","9","morning","2026-04-08","2026-04-21","2026-04-16T04:14:08.648Z","Mozilla/5.0 (iPhone; CPU iPhone OS 18_7 like Mac OS X) AppleWebKit/605.1.15 (KHTML, like Gecko) Mobile/15E148","358","632","240","","null","<div style=""font-size:60px;"">+</div>","null","fixation","","","","","","","","","","","",""
"html-button-response","17","19316","0.0-2.0-1.7","1067","25","pre","9","morning","2026-04-08","2026-04-21","2026-04-16T04:14:08.648Z","Mozilla/5.0 (iPhone; CPU iPhone OS 18_7 like Mac OS X) AppleWebKit/605.1.15 (KHTML, like Gecko) Mobile/15E148","358","632","240","","876","<div class=""prompt"" style=""font-size:24px; margin-bottom:20px;"">Which word describes you more?</div>","0","pairing","8","esteemed","brave","PosPos","70","64","positive","positive","6","esteemed","left","true"
"html-keyboard-response","18","20119","0.0-2.0-0.8","1067","25","pre","9","morning","2026-04-08","2026-04-21","2026-04-16T04:14:08.648Z","Mozilla/5.0 (iPhone; CPU iPhone OS 18_7 like Mac OS X) AppleWebKit/605.1.15 (KHTML, like Gecko) Mobile/15E148","358","632","240","","null","<div style=""font-size:60px;"">+</div>","null","fixation","","","","","","","","","","","",""
"html-button-response","19","21050","0.0-2.0-1.8","1067","25","pre","9","morning","2026-04-08","2026-04-21","2026-04-16T04:14:08.648Z","Mozilla/5.0 (iPhone; CPU iPhone OS 18_7 like Mac OS X) AppleWebKit/605.1.15 (KHTML, like Gecko) Mobile/15E148","358","632","240","","928","<div class=""prompt"" style=""font-size:24px; margin-bottom:20px;"">Which word describes you more?</div>","0","pairing","9","reliable","selfish","PosNeg","69","50","positive","negative","19","reliable","left","true"
"html-keyboard-response","20","21852","0.0-2.0-0.9","1067","25","pre","9","morning","2026-04-08","2026-04-21","2026-04-16T04:14:08.648Z","Mozilla/5.0 (iPhone; CPU iPhone OS 18_7 like Mac OS X) AppleWebKit/605.1.15 (KHTML, like Gecko) Mobile/15E148","358","632","240","","null","<div style=""font-size:60px;"">+</div>","null","fixation","","","","","","","","","","","",""
"html-button-response","21","22817","0.0-2.0-1.9","1067","25","pre","9","morning","2026-04-08","2026-04-21","2026-04-16T04:14:08.648Z","Mozilla/5.0 (iPhone; CPU iPhone OS 18_7 like Mac OS X) AppleWebKit/605.1.15 (KHTML, like Gecko) Mobile/15E148","358","632","240","","961","<div class=""prompt"" style=""font-size:24px; margin-bottom:20px;"">Which word describes you more?</div>","0","pairing","10","devoted","disastrous","PosNeg","87","23","positive","negative","64","devoted","left","true"
"html-keyboard-response","22","23619","0.0-2.0-0.10","1067","25","pre","9","morning","2026-04-08","2026-04-21","2026-04-16T04:14:08.648Z","Mozilla/5.0 (iPhone; CPU iPhone OS 18_7 like Mac OS X) AppleWebKit/605.1.15 (KHTML, like Gecko) Mobile/15E148","358","632","240","","null","<div style=""font-size:60px;"">+</div>","null","fixation","","","","","","","","","","","",""
"html-button-response","23","25782","0.0-2.0-1.10","1067","25","pre","9","morning","2026-04-08","2026-04-21","2026-04-16T04:14:08.648Z","Mozilla/5.0 (iPhone; CPU iPhone OS 18_7 like Mac OS X) AppleWebKit/605.1.15 (KHTML, like Gecko) Mobile/15E148","358","632","240","","2161","<div class=""prompt"" style=""font-size:24px; margin-bottom:20px;"">Which word describes you more?</div>","1","pairing","11","malicious","unbearable","NegNeg","3","12","negative","negative","9","unbearable","right","true"
"html-keyboard-response","24","26585","0.0-2.0-0.11","1067","25","pre","9","morning","2026-04-08","2026-04-21","2026-04-16T04:14:08.648Z","Mozilla/5.0 (iPhone; CPU iPhone OS 18_7 like Mac OS X) AppleWebKit/605.1.15 (KHTML, like Gecko) Mobile/15E148","358","632","240","","null","<div style=""font-size:60px;"">+</div>","null","fixation","","","","","","","","","","","",""
"html-button-response","25","27883","0.0-2.0-1.11","1067","25","pre","9","morning","2026-04-08","2026-04-21","2026-04-16T04:14:08.648Z","Mozilla/5.0 (iPhone; CPU iPhone OS 18_7 like Mac OS X) AppleWebKit/605.1.15 (KHTML, like Gecko) Mobile/15E148","358","632","240","","1296","<div class=""prompt"" style=""font-size:24px; margin-bottom:20px;"">Which word describes you more?</div>","1","pairing","12","wise","satisfied","PosPos","49","88","positive","positive","39","satisfied","right","true"
"html-keyboard-response","26","28686","0.0-2.0-0.12","1067","25","pre","9","morning","2026-04-08","2026-04-21","2026-04-16T04:14:08.648Z","Mozilla/5.0 (iPhone; CPU iPhone OS 18_7 like Mac OS X) AppleWebKit/605.1.15 (KHTML, like Gecko) Mobile/15E148","358","632","240","","null","<div style=""font-size:60px;"">+</div>","null","fixation","","","","","","","","","","","",""
"html-button-response","27","29817","0.0-2.0-1.12","1067","25","pre","9","morning","2026-04-08","2026-04-21","2026-04-16T04:14:08.648Z","Mozilla/5.0 (iPhone; CPU iPhone OS 18_7 like Mac OS X) AppleWebKit/605.1.15 (KHTML, like Gecko) Mobile/15E148","358","632","240","","1129","<div class=""prompt"" style=""font-size:24px; margin-bottom:20px;"">Which word describes you more?</div>","0","pairing","13","decisive","arrogant","PosNeg","30","87","positive","negative","57","decisive","left","true"
"html-keyboard-response","28","30621","0.0-2.0-0.13","1067","25","pre","9","morning","2026-04-08","2026-04-21","2026-04-16T04:14:08.648Z","Mozilla/5.0 (iPhone; CPU iPhone OS 18_7 like Mac OS X) AppleWebKit/605.1.15 (KHTML, like Gecko) Mobile/15E148","358","632","240","","null","<div style=""font-size:60px;"">+</div>","null","fixation","","","","","","","","","","","",""
"html-button-response","29","31750","0.0-2.0-1.13","1067","25","pre","9","morning","2026-04-08","2026-04-21","2026-04-16T04:14:08.648Z","Mozilla/5.0 (iPhone; CPU iPhone OS 18_7 like Mac OS X) AppleWebKit/605.1.15 (KHTML, like Gecko) Mobile/15E148","358","632","240","","1126","<div class=""prompt"" style=""font-size:24px; margin-bottom:20px;"">Which word describes you more?</div>","1","pairing","14","asset","menace","PosNeg","64","78","positive","negative","14","menace","right","true"
"html-keyboard-response","30","32553","0.0-2.0-0.14","1067","25","pre","9","morning","2026-04-08","2026-04-21","2026-04-16T04:14:08.648Z","Mozilla/5.0 (iPhone; CPU iPhone OS 18_7 like Mac OS X) AppleWebKit/605.1.15 (KHTML, like Gecko) Mobile/15E148","358","632","240","","null","<div style=""font-size:60px;"">+</div>","null","fixation","","","","","","","","","","","",""
"html-button-response","31","33517","0.0-2.0-1.14","1067","25","pre","9","morning","2026-04-08","2026-04-21","2026-04-16T04:14:08.648Z","Mozilla/5.0 (iPhone; CPU iPhone OS 18_7 like Mac OS X) AppleWebKit/605.1.15 (KHTML, like Gecko) Mobile/15E148","358","632","240","","958","<div class=""prompt"" style=""font-size:24px; margin-bottom:20px;"">Which word describes you more?</div>","0","pairing","15","honest","headache","PosNeg","95","49","positive","negative","46","honest","left","true"
"html-keyboard-response","32","34321","0.0-2.0-0.15","1067","25","pre","9","morning","2026-04-08","2026-04-21","2026-04-16T04:14:08.648Z","Mozilla/5.0 (iPhone; CPU iPhone OS 18_7 like Mac OS X) AppleWebKit/605.1.15 (KHTML, like Gecko) Mobile/15E148","358","632","240","","null","<div style=""font-size:60px;"">+</div>","null","fixation","","","","","","","","","","","",""
"html-button-response","33","35901","0.0-2.0-1.15","1067","25","pre","9","morning","2026-04-08","2026-04-21","2026-04-16T04:14:08.648Z","Mozilla/5.0 (iPhone; CPU iPhone OS 18_7 like Mac OS X) AppleWebKit/605.1.15 (KHTML, like Gecko) Mobile/15E148","358","632","240","","1577","<div class=""prompt"" style=""font-size:24px; margin-bottom:20px;"">Which word describes you more?</div>","0","pairing","16","hater","toxic","NegNeg","75","39","negative","negative","36","hater","left","true"
"html-keyboard-response","34","36704","0.0-2.0-0.16","1067","25","pre","9","morning","2026-04-08","2026-04-21","2026-04-16T04:14:08.648Z","Mozilla/5.0 (iPhone; CPU iPhone OS 18_7 like Mac OS X) AppleWebKit/605.1.15 (KHTML, like Gecko) Mobile/15E148","358","632","240","","null","<div style=""font-size:60px;"">+</div>","null","fixation","","","","","","","","","","","",""
"html-button-response","35","37768","0.0-2.0-1.16","1067","25","pre","9","morning","2026-04-08","2026-04-21","2026-04-16T04:14:08.648Z","Mozilla/5.0 (iPhone; CPU iPhone OS 18_7 like Mac OS X) AppleWebKit/605.1.15 (KHTML, like Gecko) Mobile/15E148","358","632","240","","1061","<div class=""prompt"" style=""font-size:24px; margin-bottom:20px;"">Which word describes you more?</div>","1","pairing","17","achiever","charming","PosPos","87","50","positive","positive","37","charming","right","true"
"html-keyboard-response","36","38571","0.0-2.0-0.17","1067","25","pre","9","morning","2026-04-08","2026-04-21","2026-04-16T04:14:08.648Z","Mozilla/5.0 (iPhone; CPU iPhone OS 18_7 like Mac OS X) AppleWebKit/605.1.15 (KHTML, like Gecko) Mobile/15E148","358","632","240","","null","<div style=""font-size:60px;"">+</div>","null","fixation","","","","","","","","","","","",""
"html-button-response","37","40017","0.0-2.0-1.17","1067","25","pre","9","morning","2026-04-08","2026-04-21","2026-04-16T04:14:08.648Z","Mozilla/5.0 (iPhone; CPU iPhone OS 18_7 like Mac OS X) AppleWebKit/605.1.15 (KHTML, like Gecko) Mobile/15E148","358","632","240","","1445","<div class=""prompt"" style=""font-size:24px; margin-bottom:20px;"">Which word describes you more?</div>","0","pairing","18","menace","untrustworthy","NegNeg","78","4","negative","negative","74","menace","left","true"
"html-keyboard-response","38","40820","0.0-2.0-0.18","1067","25","pre","9","morning","2026-04-08","2026-04-21","2026-04-16T04:14:08.648Z","Mozilla/5.0 (iPhone; CPU iPhone OS 18_7 like Mac OS X) AppleWebKit/605.1.15 (KHTML, like Gecko) Mobile/15E148","358","632","240","","null","<div style=""font-size:60px;"">+</div>","null","fixation","","","","","","","","","","","",""
"html-button-response","39","42451","0.0-2.0-1.18","1067","25","pre","9","morning","2026-04-08","2026-04-21","2026-04-16T04:14:08.648Z","Mozilla/5.0 (iPhone; CPU iPhone OS 18_7 like Mac OS X) AppleWebKit/605.1.15 (KHTML, like Gecko) Mobile/15E148","358","632","240","","1628","<div class=""prompt"" style=""font-size:24px; margin-bottom:20px;"">Which word describes you more?</div>","1","pairing","19","helpless","irresponsible","NegNeg","0","41","negative","negative","41","irresponsible","right","true"
"html-keyboard-response","40","43254","0.0-2.0-0.19","1067","25","pre","9","morning","2026-04-08","2026-04-21","2026-04-16T04:14:08.648Z","Mozilla/5.0 (iPhone; CPU iPhone OS 18_7 like Mac OS X) AppleWebKit/605.1.15 (KHTML, like Gecko) Mobile/15E148","358","632","240","","null","<div style=""font-size:60px;"">+</div>","null","fixation","","","","","","","","","","","",""
"html-button-response","41","44518","0.0-2.0-1.19","1067","25","pre","9","morning","2026-04-08","2026-04-21","2026-04-16T04:14:08.648Z","Mozilla/5.0 (iPhone; CPU iPhone OS 18_7 like Mac OS X) AppleWebKit/605.1.15 (KHTML, like Gecko) Mobile/15E148","358","632","240","","1262","<div class=""prompt"" style=""font-size:24px; margin-bottom:20px;"">Which word describes you more?</div>","1","pairing","20","spirited","blissful","PosPos","51","68","positive","positive","17","blissful","right","true"
"html-keyboard-response","42","45320","0.0-2.0-0.20","1067","25","pre","9","morning","2026-04-08","2026-04-21","2026-04-16T04:14:08.648Z","Mozilla/5.0 (iPhone; CPU iPhone OS 18_7 like Mac OS X) AppleWebKit/605.1.15 (KHTML, like Gecko) Mobile/15E148","358","632","240","","null","<div style=""font-size:60px;"">+</div>","null","fixation","","","","","","","","","","","",""
"html-button-response","43","46185","0.0-2.0-1.20","1067","25","pre","9","morning","2026-04-08","2026-04-21","2026-04-16T04:14:08.648Z","Mozilla/5.0 (iPhone; CPU iPhone OS 18_7 like Mac OS X) AppleWebKit/605.1.15 (KHTML, like Gecko) Mobile/15E148","358","632","240","","862","<div class=""prompt"" style=""font-size:24px; margin-bottom:20px;"">Which word describes you more?</div>","1","pairing","21","hateful","adorable","PosNeg","49","59","negative","positive","10","adorable","right","true"
"html-keyboard-response","44","46987","0.0-2.0-0.21","1067","25","pre","9","morning","2026-04-08","2026-04-21","2026-04-16T04:14:08.648Z","Mozilla/5.0 (iPhone; CPU iPhone OS 18_7 like Mac OS X) AppleWebKit/605.1.15 (KHTML, like Gecko) Mobile/15E148","358","632","240","","null","<div style=""font-size:60px;"">+</div>","null","fixation","","","","","","","","","","","",""
"html-button-response","45","48452","0.0-2.0-1.21","1067","25","pre","9","morning","2026-04-08","2026-04-21","2026-04-16T04:14:08.648Z","Mozilla/5.0 (iPhone; CPU iPhone OS 18_7 like Mac OS X) AppleWebKit/605.1.15 (KHTML, like Gecko) Mobile/15E148","358","632","240","","1462","<div class=""prompt"" style=""font-size:24px; margin-bottom:20px;"">Which word describes you more?</div>","0","pairing","22","burden","phony","NegNeg","13","1","negative","negative","12","burden","left","true"
"html-keyboard-response","46","49255","0.0-2.0-0.22","1067","25","pre","9","morning","2026-04-08","2026-04-21","2026-04-16T04:14:08.648Z","Mozilla/5.0 (iPhone; CPU iPhone OS 18_7 like Mac OS X) AppleWebKit/605.1.15 (KHTML, like Gecko) Mobile/15E148","358","632","240","","null","<div style=""font-size:60px;"">+</div>","null","fixation","","","","","","","","","","","",""
"html-button-response","47","51202","0.0-2.0-1.22","1067","25","pre","9","morning","2026-04-08","2026-04-21","2026-04-16T04:14:08.648Z","Mozilla/5.0 (iPhone; CPU iPhone OS 18_7 like Mac OS X) AppleWebKit/605.1.15 (KHTML, like Gecko) Mobile/15E148","358","632","240","","1943","<div class=""prompt"" style=""font-size:24px; margin-bottom:20px;"">Which word describes you more?</div>","0","pairing","23","learner","patient","PosPos","100","32","positive","positive","68","learner","left","true"
"html-keyboard-response","48","52004","0.0-2.0-0.23","1067","25","pre","9","morning","2026-04-08","2026-04-21","2026-04-16T04:14:08.648Z","Mozilla/5.0 (iPhone; CPU iPhone OS 18_7 like Mac OS X) AppleWebKit/605.1.15 (KHTML, like Gecko) Mobile/15E148","358","632","240","","null","<div style=""font-size:60px;"">+</div>","null","fixation","","","","","","","","","","","",""
"html-button-response","49","53152","0.0-2.0-1.23","1067","25","pre","9","morning","2026-04-08","2026-04-21","2026-04-16T04:14:08.648Z","Mozilla/5.0 (iPhone; CPU iPhone OS 18_7 like Mac OS X) AppleWebKit/605.1.15 (KHTML, like Gecko) Mobile/15E148","358","632","240","","1146","<div class=""prompt"" style=""font-size:24px; margin-bottom:20px;"">Which word describes you more?</div>","1","pairing","24","incompetent","prick","NegNeg","7","74","negative","negative","67","prick","right","true"
"instructions","50","54802","0.0-3.0","1067","25","pre","9","morning","2026-04-08","2026-04-21","2026-04-16T04:14:08.648Z","Mozilla/5.0 (iPhone; CPU iPhone OS 18_7 like Mac OS X) AppleWebKit/605.1.15 (KHTML, like Gecko) Mobile/15E148","358","632","240","[{""page_index"":0,""viewing_time"":1648}]","1648","","","","","","","","","","","","","","",""
