"trial_type","trial_index","time_elapsed","internal_node_id","PUNS_ID","session_number","session_phase","session_day","session_slot","ema_start_date","ema_post_start_date","experiment_start","browser","screen_width","screen_height","timezone_offset","view_history","rt","stimulus","response","which_experiment_phase","trial_number","left_word","right_word","valence","left_base_rating","right_base_rating","left_valence","right_valence","abs_diff","participant_response","chosen_side","valid_response"
"pavlovia","0","1491","0.0-0.0","1044","37","post","3","morning","2026-03-24","2026-04-06","2026-04-08T14:15:00.772Z","Mozilla/5.0 (iPhone; CPU iPhone OS 18_7 like Mac OS X) AppleWebKit/605.1.15 (KHTML, like Gecko) Mobile/15E148","370","647","240","","","","","","","","","","","","","","","","",""
"instructions","1","4676","0.0-1.0","1044","37","post","3","morning","2026-03-24","2026-04-06","2026-04-08T14:15:00.772Z","Mozilla/5.0 (iPhone; CPU iPhone OS 18_7 like Mac OS X) AppleWebKit/605.1.15 (KHTML, like Gecko) Mobile/15E148","370","647","240","[{""page_index"":0,""viewing_time"":808},{""page_index"":1,""viewing_time"":1023},{""page_index"":2,""viewing_time"":699},{""page_index"":3,""viewing_time"":650}]","3181","","","","","","","","","","","","","","",""
"html-keyboard-response","2","5481","0.0-2.0-0.0","1044","37","post","3","morning","2026-03-24","2026-04-06","2026-04-08T14:15:00.772Z","Mozilla/5.0 (iPhone; CPU iPhone OS 18_7 like Mac OS X) AppleWebKit/605.1.15 (KHTML, like Gecko) Mobile/15E148","370","647","240","","null","<div style=""font-size:60px;"">+</div>","null","fixation","","","","","","","","","","","",""
"html-button-response","3","7236","0.0-2.0-1.0","1044","37","post","3","morning","2026-03-24","2026-04-06","2026-04-08T14:15:00.772Z","Mozilla/5.0 (iPhone; CPU iPhone OS 18_7 like Mac OS X) AppleWebKit/605.1.15 (KHTML, like Gecko) Mobile/15E148","370","647","240","","1751","<div class=""prompt"" style=""font-size:24px; margin-bottom:20px;"">Which word describes you more?</div>","1","pairing","1","esteemed","cooperative","PosPos","88","86","positive","positive","2","cooperative","right","true"
"html-keyboard-response","4","8038","0.0-2.0-0.1","1044","37","post","3","morning","2026-03-24","2026-04-06","2026-04-08T14:15:00.772Z","Mozilla/5.0 (iPhone; CPU iPhone OS 18_7 like Mac OS X) AppleWebKit/605.1.15 (KHTML, like Gecko) Mobile/15E148","370","647","240","","null","<div style=""font-size:60px;"">+</div>","null","fixation","","","","","","","","","","","",""
"html-button-response","5","9168","0.0-2.0-1.1","1044","37","post","3","morning","2026-03-24","2026-04-06","2026-04-08T14:15:00.772Z","Mozilla/5.0 (iPhone; CPU iPhone OS 18_7 like Mac OS X) AppleWebKit/605.1.15 (KHTML, like Gecko) Mobile/15E148","370","647","240","","1128","<div class=""prompt"" style=""font-size:24px; margin-bottom:20px;"">Which word describes you more?</div>","0","pairing","2","devoted","bitter","PosNeg","85","6","positive","negative","79","devoted","left","true"
"html-keyboard-response","6","9970","0.0-2.0-0.2","1044","37","post","3","morning","2026-03-24","2026-04-06","2026-04-08T14:15:00.772Z","Mozilla/5.0 (iPhone; CPU iPhone OS 18_7 like Mac OS X) AppleWebKit/605.1.15 (KHTML, like Gecko) Mobile/15E148","370","647","240","","null","<div style=""font-size:60px;"">+</div>","null","fixation","","","","","","","","","","","",""
"html-button-response","7","10818","0.0-2.0-1.2","1044","37","post","3","morning","2026-03-24","2026-04-06","2026-04-08T14:15:00.772Z","Mozilla/5.0 (iPhone; CPU iPhone OS 18_7 like Mac OS X) AppleWebKit/605.1.15 (KHTML, like Gecko) Mobile/15E148","370","647","240","","846","<div class=""prompt"" style=""font-size:24px; margin-bottom:20px;"">Which word describes you more?</div>","0","pairing","3","proficient","distressed","PosNeg","70","19","positive","negative","51","proficient","left","true"
"html-keyboard-response","8","11620","0.0-2.0-0.3","1044","37","post","3","morning","2026-03-24","2026-04-06","2026-04-08T14:15:00.772Z","Mozilla/5.0 (iPhone; CPU iPhone OS 18_7 like Mac OS X) AppleWebKit/605.1.15 (KHTML, like Gecko) Mobile/15E148","370","647","240","","null","<div style=""font-size:60px;"">+</div>","null","fixation","","","","","","","","","","","",""
"html-button-response","9","13418","0.0-2.0-1.3","1044","37","post","3","morning","2026-03-24","2026-04-06","2026-04-08T14:15:00.772Z","Mozilla/5.0 (iPhone; CPU iPhone OS 18_7 like Mac OS X) AppleWebKit/605.1.15 (KHTML, like Gecko) Mobile/15E148","370","647","240","","1797","<div class=""prompt"" style=""font-size:24px; margin-bottom:20px;"">Which word describes you more?</div>","0","pairing","4","alone","shameful","NegNeg","94","7","negative","negative","87","alone","left","true"
"html-keyboard-response","10","14220","0.0-2.0-0.4","1044","37","post","3","morning","2026-03-24","2026-04-06","2026-04-08T14:15:00.772Z","Mozilla/5.0 (iPhone; CPU iPhone OS 18_7 like Mac OS X) AppleWebKit/605.1.15 (KHTML, like Gecko) Mobile/15E148","370","647","240","","null","<div style=""font-size:60px;"">+</div>","null","fixation","","","","","","","","","","","",""
"html-button-response","11","15178","0.0-2.0-1.4","1044","37","post","3","morning","2026-03-24","2026-04-06","2026-04-08T14:15:00.772Z","Mozilla/5.0 (iPhone; CPU iPhone OS 18_7 like Mac OS X) AppleWebKit/605.1.15 (KHTML, like Gecko) Mobile/15E148","370","647","240","","956","<div class=""prompt"" style=""font-size:24px; margin-bottom:20px;"">Which word describes you more?</div>","1","pairing","5","cruel","hesitant","NegNeg","2","37","negative","negative","35","hesitant","right","true"
"html-keyboard-response","12","15980","0.0-2.0-0.5","1044","37","post","3","morning","2026-03-24","2026-04-06","2026-04-08T14:15:00.772Z","Mozilla/5.0 (iPhone; CPU iPhone OS 18_7 like Mac OS X) AppleWebKit/605.1.15 (KHTML, like Gecko) Mobile/15E148","370","647","240","","null","<div style=""font-size:60px;"">+</div>","null","fixation","","","","","","","","","","","",""
"html-button-response","13","17104","0.0-2.0-1.5","1044","37","post","3","morning","2026-03-24","2026-04-06","2026-04-08T14:15:00.772Z","Mozilla/5.0 (iPhone; CPU iPhone OS 18_7 like Mac OS X) AppleWebKit/605.1.15 (KHTML, like Gecko) Mobile/15E148","370","647","240","","1122","<div class=""prompt"" style=""font-size:24px; margin-bottom:20px;"">Which word describes you more?</div>","0","pairing","6","miserable","phony","NegNeg","8","10","negative","negative","2","miserable","left","true"
"html-keyboard-response","14","17906","0.0-2.0-0.6","1044","37","post","3","morning","2026-03-24","2026-04-06","2026-04-08T14:15:00.772Z","Mozilla/5.0 (iPhone; CPU iPhone OS 18_7 like Mac OS X) AppleWebKit/605.1.15 (KHTML, like Gecko) Mobile/15E148","370","647","240","","null","<div style=""font-size:60px;"">+</div>","null","fixation","","","","","","","","","","","",""
"html-button-response","15","18745","0.0-2.0-1.6","1044","37","post","3","morning","2026-03-24","2026-04-06","2026-04-08T14:15:00.772Z","Mozilla/5.0 (iPhone; CPU iPhone OS 18_7 like Mac OS X) AppleWebKit/605.1.15 (KHTML, like Gecko) Mobile/15E148","370","647","240","","835","<div class=""prompt"" style=""font-size:24px; margin-bottom:20px;"">Which word describes you more?</div>","0","pairing","7","pleased","appealing","PosPos","73","81","positive","positive","8","pleased","left","true"
"html-keyboard-response","16","19547","0.0-2.0-0.7","1044","37","post","3","morning","2026-03-24","2026-04-06","2026-04-08T14:15:00.772Z","Mozilla/5.0 (iPhone; CPU iPhone OS 18_7 like Mac OS X) AppleWebKit/605.1.15 (KHTML, like Gecko) Mobile/15E148","370","647","240","","null","<div style=""font-size:60px;"">+</div>","null","fixation","","","","","","","","","","","",""
"html-button-response","17","20478","0.0-2.0-1.7","1044","37","post","3","morning","2026-03-24","2026-04-06","2026-04-08T14:15:00.772Z","Mozilla/5.0 (iPhone; CPU iPhone OS 18_7 like Mac OS X) AppleWebKit/605.1.15 (KHTML, like Gecko) Mobile/15E148","370","647","240","","928","<div class=""prompt"" style=""font-size:24px; margin-bottom:20px;"">Which word describes you more?</div>","1","pairing","8","pest","anxious","NegNeg","11","81","negative","negative","70","anxious","right","true"
"html-keyboard-response","18","21280","0.0-2.0-0.8","1044","37","post","3","morning","2026-03-24","2026-04-06","2026-04-08T14:15:00.772Z","Mozilla/5.0 (iPhone; CPU iPhone OS 18_7 like Mac OS X) AppleWebKit/605.1.15 (KHTML, like Gecko) Mobile/15E148","370","647","240","","null","<div style=""font-size:60px;"">+</div>","null","fixation","","","","","","","","","","","",""
"html-button-response","19","23870","0.0-2.0-1.8","1044","37","post","3","morning","2026-03-24","2026-04-06","2026-04-08T14:15:00.772Z","Mozilla/5.0 (iPhone; CPU iPhone OS 18_7 like Mac OS X) AppleWebKit/605.1.15 (KHTML, like Gecko) Mobile/15E148","370","647","240","","2588","<div class=""prompt"" style=""font-size:24px; margin-bottom:20px;"">Which word describes you more?</div>","1","pairing","9","unwanted","headache","NegNeg","22","9","negative","negative","13","headache","right","true"
"html-keyboard-response","20","24673","0.0-2.0-0.9","1044","37","post","3","morning","2026-03-24","2026-04-06","2026-04-08T14:15:00.772Z","Mozilla/5.0 (iPhone; CPU iPhone OS 18_7 like Mac OS X) AppleWebKit/605.1.15 (KHTML, like Gecko) Mobile/15E148","370","647","240","","null","<div style=""font-size:60px;"">+</div>","null","fixation","","","","","","","","","","","",""
"html-button-response","21","25469","0.0-2.0-1.9","1044","37","post","3","morning","2026-03-24","2026-04-06","2026-04-08T14:15:00.772Z","Mozilla/5.0 (iPhone; CPU iPhone OS 18_7 like Mac OS X) AppleWebKit/605.1.15 (KHTML, like Gecko) Mobile/15E148","370","647","240","","795","<div class=""prompt"" style=""font-size:24px; margin-bottom:20px;"">Which word describes you more?</div>","0","pairing","10","sensible","alone","PosNeg","90","94","positive","negative","4","sensible","left","true"
"html-keyboard-response","22","26271","0.0-2.0-0.10","1044","37","post","3","morning","2026-03-24","2026-04-06","2026-04-08T14:15:00.772Z","Mozilla/5.0 (iPhone; CPU iPhone OS 18_7 like Mac OS X) AppleWebKit/605.1.15 (KHTML, like Gecko) Mobile/15E148","370","647","240","","null","<div style=""font-size:60px;"">+</div>","null","fixation","","","","","","","","","","","",""
"html-button-response","23","27267","0.0-2.0-1.10","1044","37","post","3","morning","2026-03-24","2026-04-06","2026-04-08T14:15:00.772Z","Mozilla/5.0 (iPhone; CPU iPhone OS 18_7 like Mac OS X) AppleWebKit/605.1.15 (KHTML, like Gecko) Mobile/15E148","370","647","240","","994","<div class=""prompt"" style=""font-size:24px; margin-bottom:20px;"">Which word describes you more?</div>","1","pairing","11","cruel","carefree","PosNeg","2","90","negative","positive","88","carefree","right","true"
"html-keyboard-response","24","28071","0.0-2.0-0.11","1044","37","post","3","morning","2026-03-24","2026-04-06","2026-04-08T14:15:00.772Z","Mozilla/5.0 (iPhone; CPU iPhone OS 18_7 like Mac OS X) AppleWebKit/605.1.15 (KHTML, like Gecko) Mobile/15E148","370","647","240","","null","<div style=""font-size:60px;"">+</div>","null","fixation","","","","","","","","","","","",""
"html-button-response","25","29071","0.0-2.0-1.11","1044","37","post","3","morning","2026-03-24","2026-04-06","2026-04-08T14:15:00.772Z","Mozilla/5.0 (iPhone; CPU iPhone OS 18_7 like Mac OS X) AppleWebKit/605.1.15 (KHTML, like Gecko) Mobile/15E148","370","647","240","","999","<div class=""prompt"" style=""font-size:24px; margin-bottom:20px;"">Which word describes you more?</div>","1","pairing","12","awkward","idealistic","PosNeg","41","74","negative","positive","33","idealistic","right","true"
"html-keyboard-response","26","29873","0.0-2.0-0.12","1044","37","post","3","morning","2026-03-24","2026-04-06","2026-04-08T14:15:00.772Z","Mozilla/5.0 (iPhone; CPU iPhone OS 18_7 like Mac OS X) AppleWebKit/605.1.15 (KHTML, like Gecko) Mobile/15E148","370","647","240","","null","<div style=""font-size:60px;"">+</div>","null","fixation","","","","","","","","","","","",""
"html-button-response","27","30644","0.0-2.0-1.12","1044","37","post","3","morning","2026-03-24","2026-04-06","2026-04-08T14:15:00.772Z","Mozilla/5.0 (iPhone; CPU iPhone OS 18_7 like Mac OS X) AppleWebKit/605.1.15 (KHTML, like Gecko) Mobile/15E148","370","647","240","","768","<div class=""prompt"" style=""font-size:24px; margin-bottom:20px;"">Which word describes you more?</div>","0","pairing","13","insecure","violent","NegNeg","51","11","negative","negative","40","insecure","left","true"
"html-keyboard-response","28","31447","0.0-2.0-0.13","1044","37","post","3","morning","2026-03-24","2026-04-06","2026-04-08T14:15:00.772Z","Mozilla/5.0 (iPhone; CPU iPhone OS 18_7 like Mac OS X) AppleWebKit/605.1.15 (KHTML, like Gecko) Mobile/15E148","370","647","240","","null","<div style=""font-size:60px;"">+</div>","null","fixation","","","","","","","","","","","",""
"html-button-response","29","32137","0.0-2.0-1.13","1044","37","post","3","morning","2026-03-24","2026-04-06","2026-04-08T14:15:00.772Z","Mozilla/5.0 (iPhone; CPU iPhone OS 18_7 like Mac OS X) AppleWebKit/605.1.15 (KHTML, like Gecko) Mobile/15E148","370","647","240","","687","<div class=""prompt"" style=""font-size:24px; margin-bottom:20px;"">Which word describes you more?</div>","0","pairing","14","achiever","admired","PosPos","86","98","positive","positive","12","achiever","left","true"
"html-keyboard-response","30","32939","0.0-2.0-0.14","1044","37","post","3","morning","2026-03-24","2026-04-06","2026-04-08T14:15:00.772Z","Mozilla/5.0 (iPhone; CPU iPhone OS 18_7 like Mac OS X) AppleWebKit/605.1.15 (KHTML, like Gecko) Mobile/15E148","370","647","240","","null","<div style=""font-size:60px;"">+</div>","null","fixation","","","","","","","","","","","",""
"html-button-response","31","34311","0.0-2.0-1.14","1044","37","post","3","morning","2026-03-24","2026-04-06","2026-04-08T14:15:00.772Z","Mozilla/5.0 (iPhone; CPU iPhone OS 18_7 like Mac OS X) AppleWebKit/605.1.15 (KHTML, like Gecko) Mobile/15E148","370","647","240","","1371","<div class=""prompt"" style=""font-size:24px; margin-bottom:20px;"">Which word describes you more?</div>","0","pairing","15","witty","anxious","PosNeg","94","81","positive","negative","13","witty","left","true"
"html-keyboard-response","32","35113","0.0-2.0-0.15","1044","37","post","3","morning","2026-03-24","2026-04-06","2026-04-08T14:15:00.772Z","Mozilla/5.0 (iPhone; CPU iPhone OS 18_7 like Mac OS X) AppleWebKit/605.1.15 (KHTML, like Gecko) Mobile/15E148","370","647","240","","null","<div style=""font-size:60px;"">+</div>","null","fixation","","","","","","","","","","","",""
"html-button-response","33","36380","0.0-2.0-1.15","1044","37","post","3","morning","2026-03-24","2026-04-06","2026-04-08T14:15:00.772Z","Mozilla/5.0 (iPhone; CPU iPhone OS 18_7 like Mac OS X) AppleWebKit/605.1.15 (KHTML, like Gecko) Mobile/15E148","370","647","240","","1266","<div class=""prompt"" style=""font-size:24px; margin-bottom:20px;"">Which word describes you more?</div>","1","pairing","16","brave","valued","PosPos","74","88","positive","positive","14","valued","right","true"
"html-keyboard-response","34","37183","0.0-2.0-0.16","1044","37","post","3","morning","2026-03-24","2026-04-06","2026-04-08T14:15:00.772Z","Mozilla/5.0 (iPhone; CPU iPhone OS 18_7 like Mac OS X) AppleWebKit/605.1.15 (KHTML, like Gecko) Mobile/15E148","370","647","240","","null","<div style=""font-size:60px;"">+</div>","null","fixation","","","","","","","","","","","",""
"html-button-response","35","38346","0.0-2.0-1.16","1044","37","post","3","morning","2026-03-24","2026-04-06","2026-04-08T14:15:00.772Z","Mozilla/5.0 (iPhone; CPU iPhone OS 18_7 like Mac OS X) AppleWebKit/605.1.15 (KHTML, like Gecko) Mobile/15E148","370","647","240","","1161","<div class=""prompt"" style=""font-size:24px; margin-bottom:20px;"">Which word describes you more?</div>","1","pairing","17","alone","expert","PosNeg","94","82","negative","positive","12","expert","right","true"
"html-keyboard-response","36","39147","0.0-2.0-0.17","1044","37","post","3","morning","2026-03-24","2026-04-06","2026-04-08T14:15:00.772Z","Mozilla/5.0 (iPhone; CPU iPhone OS 18_7 like Mac OS X) AppleWebKit/605.1.15 (KHTML, like Gecko) Mobile/15E148","370","647","240","","null","<div style=""font-size:60px;"">+</div>","null","fixation","","","","","","","","","","","",""
"html-button-response","37","40249","0.0-2.0-1.17","1044","37","post","3","morning","2026-03-24","2026-04-06","2026-04-08T14:15:00.772Z","Mozilla/5.0 (iPhone; CPU iPhone OS 18_7 like Mac OS X) AppleWebKit/605.1.15 (KHTML, like Gecko) Mobile/15E148","370","647","240","","1100","<div class=""prompt"" style=""font-size:24px; margin-bottom:20px;"">Which word describes you more?</div>","1","pairing","18","selfish","asset","PosNeg","36","86","negative","positive","50","asset","right","true"
"html-keyboard-response","38","41051","0.0-2.0-0.18","1044","37","post","3","morning","2026-03-24","2026-04-06","2026-04-08T14:15:00.772Z","Mozilla/5.0 (iPhone; CPU iPhone OS 18_7 like Mac OS X) AppleWebKit/605.1.15 (KHTML, like Gecko) Mobile/15E148","370","647","240","","null","<div style=""font-size:60px;"">+</div>","null","fixation","","","","","","","","","","","",""
"html-button-response","39","41772","0.0-2.0-1.18","1044","37","post","3","morning","2026-03-24","2026-04-06","2026-04-08T14:15:00.772Z","Mozilla/5.0 (iPhone; CPU iPhone OS 18_7 like Mac OS X) AppleWebKit/605.1.15 (KHTML, like Gecko) Mobile/15E148","370","647","240","","718","<div class=""prompt"" style=""font-size:24px; margin-bottom:20px;"">Which word describes you more?</div>","0","pairing","19","delight","jealous","PosNeg","81","21","positive","negative","60","delight","left","true"
"html-keyboard-response","40","42574","0.0-2.0-0.19","1044","37","post","3","morning","2026-03-24","2026-04-06","2026-04-08T14:15:00.772Z","Mozilla/5.0 (iPhone; CPU iPhone OS 18_7 like Mac OS X) AppleWebKit/605.1.15 (KHTML, like Gecko) Mobile/15E148","370","647","240","","null","<div style=""font-size:60px;"">+</div>","null","fixation","","","","","","","","","","","",""
"html-button-response","41","43457","0.0-2.0-1.19","1044","37","post","3","morning","2026-03-24","2026-04-06","2026-04-08T14:15:00.772Z","Mozilla/5.0 (iPhone; CPU iPhone OS 18_7 like Mac OS X) AppleWebKit/605.1.15 (KHTML, like Gecko) Mobile/15E148","370","647","240","","879","<div class=""prompt"" style=""font-size:24px; margin-bottom:20px;"">Which word describes you more?</div>","1","pairing","20","selfish","entertaining","PosNeg","36","90","negative","positive","54","entertaining","right","true"
"html-keyboard-response","42","44259","0.0-2.0-0.20","1044","37","post","3","morning","2026-03-24","2026-04-06","2026-04-08T14:15:00.772Z","Mozilla/5.0 (iPhone; CPU iPhone OS 18_7 like Mac OS X) AppleWebKit/605.1.15 (KHTML, like Gecko) Mobile/15E148","370","647","240","","null","<div style=""font-size:60px;"">+</div>","null","fixation","","","","","","","","","","","",""
"html-button-response","43","45281","0.0-2.0-1.20","1044","37","post","3","morning","2026-03-24","2026-04-06","2026-04-08T14:15:00.772Z","Mozilla/5.0 (iPhone; CPU iPhone OS 18_7 like Mac OS X) AppleWebKit/605.1.15 (KHTML, like Gecko) Mobile/15E148","370","647","240","","1021","<div class=""prompt"" style=""font-size:24px; margin-bottom:20px;"">Which word describes you more?</div>","0","pairing","21","humorous","adorable","PosPos","98","91","positive","positive","7","humorous","left","true"
"html-keyboard-response","44","46083","0.0-2.0-0.21","1044","37","post","3","morning","2026-03-24","2026-04-06","2026-04-08T14:15:00.772Z","Mozilla/5.0 (iPhone; CPU iPhone OS 18_7 like Mac OS X) AppleWebKit/605.1.15 (KHTML, like Gecko) Mobile/15E148","370","647","240","","null","<div style=""font-size:60px;"">+</div>","null","fixation","","","","","","","","","","","",""
"html-button-response","45","46981","0.0-2.0-1.21","1044","37","post","3","morning","2026-03-24","2026-04-06","2026-04-08T14:15:00.772Z","Mozilla/5.0 (iPhone; CPU iPhone OS 18_7 like Mac OS X) AppleWebKit/605.1.15 (KHTML, like Gecko) Mobile/15E148","370","647","240","","896","<div class=""prompt"" style=""font-size:24px; margin-bottom:20px;"">Which word describes you more?</div>","1","pairing","22","phony","humorous","PosNeg","10","98","negative","positive","88","humorous","right","true"
"html-keyboard-response","46","47783","0.0-2.0-0.22","1044","37","post","3","morning","2026-03-24","2026-04-06","2026-04-08T14:15:00.772Z","Mozilla/5.0 (iPhone; CPU iPhone OS 18_7 like Mac OS X) AppleWebKit/605.1.15 (KHTML, like Gecko) Mobile/15E148","370","647","240","","null","<div style=""font-size:60px;"">+</div>","null","fixation","","","","","","","","","","","",""
"html-button-response","47","48800","0.0-2.0-1.22","1044","37","post","3","morning","2026-03-24","2026-04-06","2026-04-08T14:15:00.772Z","Mozilla/5.0 (iPhone; CPU iPhone OS 18_7 like Mac OS X) AppleWebKit/605.1.15 (KHTML, like Gecko) Mobile/15E148","370","647","240","","1015","<div class=""prompt"" style=""font-size:24px; margin-bottom:20px;"">Which word describes you more?</div>","1","pairing","23","humorous","hopeful","PosPos","98","85","positive","positive","13","hopeful","right","true"
"html-keyboard-response","48","49602","0.0-2.0-0.23","1044","37","post","3","morning","2026-03-24","2026-04-06","2026-04-08T14:15:00.772Z","Mozilla/5.0 (iPhone; CPU iPhone OS 18_7 like Mac OS X) AppleWebKit/605.1.15 (KHTML, like Gecko) Mobile/15E148","370","647","240","","null","<div style=""font-size:60px;"">+</div>","null","fixation","","","","","","","","","","","",""
"html-button-response","49","50340","0.0-2.0-1.23","1044","37","post","3","morning","2026-03-24","2026-04-06","2026-04-08T14:15:00.772Z","Mozilla/5.0 (iPhone; CPU iPhone OS 18_7 like Mac OS X) AppleWebKit/605.1.15 (KHTML, like Gecko) Mobile/15E148","370","647","240","","735","<div class=""prompt"" style=""font-size:24px; margin-bottom:20px;"">Which word describes you more?</div>","0","pairing","24","inspirational","unpleasant","PosNeg","87","6","positive","negative","81","inspirational","left","true"
"instructions","50","51008","0.0-3.0","1044","37","post","3","morning","2026-03-24","2026-04-06","2026-04-08T14:15:00.772Z","Mozilla/5.0 (iPhone; CPU iPhone OS 18_7 like Mac OS X) AppleWebKit/605.1.15 (KHTML, like Gecko) Mobile/15E148","370","647","240","[{""page_index"":0,""viewing_time"":665}]","666","","","","","","","","","","","","","","",""
