"trial_type","trial_index","time_elapsed","internal_node_id","PUNS_ID","session_number","session_phase","session_day","session_slot","ema_start_date","ema_post_start_date","experiment_start","browser","screen_width","screen_height","timezone_offset","view_history","rt","stimulus","response","which_experiment_phase","trial_number","left_word","right_word","valence","left_base_rating","right_base_rating","left_valence","right_valence","abs_diff","participant_response","chosen_side","valid_response"
"pavlovia","0","2163","0.0-0.0","1045","20","pre","7","afternoon","2026-03-19","2026-03-31","2026-03-25T22:13:58.718Z","Mozilla/5.0 (Linux; Android 16; Pixel 10 Pro XL Build/BD3A.251105.010.E1; wv) AppleWebKit/537.36 (KHTML, like Gecko) Version/4.0 Chrome/146.0.7680.120 Mobile Safari/537.36","416","765","420","","","","","","","","","","","","","","","","",""
"instructions","1","5255","0.0-1.0","1045","20","pre","7","afternoon","2026-03-19","2026-03-31","2026-03-25T22:13:58.718Z","Mozilla/5.0 (Linux; Android 16; Pixel 10 Pro XL Build/BD3A.251105.010.E1; wv) AppleWebKit/537.36 (KHTML, like Gecko) Version/4.0 Chrome/146.0.7680.120 Mobile Safari/537.36","416","765","420","[{""page_index"":0,""viewing_time"":895},{""page_index"":1,""viewing_time"":850},{""page_index"":2,""viewing_time"":642},{""page_index"":3,""viewing_time"":701}]","3088","","","","","","","","","","","","","","",""
"html-keyboard-response","2","6064","0.0-2.0-0.0","1045","20","pre","7","afternoon","2026-03-19","2026-03-31","2026-03-25T22:13:58.718Z","Mozilla/5.0 (Linux; Android 16; Pixel 10 Pro XL Build/BD3A.251105.010.E1; wv) AppleWebKit/537.36 (KHTML, like Gecko) Version/4.0 Chrome/146.0.7680.120 Mobile Safari/537.36","416","765","420","","null","<div style=""font-size:60px;"">+</div>","null","fixation","","","","","","","","","","","",""
"html-button-response","3","7601","0.0-2.0-1.0","1045","20","pre","7","afternoon","2026-03-19","2026-03-31","2026-03-25T22:13:58.718Z","Mozilla/5.0 (Linux; Android 16; Pixel 10 Pro XL Build/BD3A.251105.010.E1; wv) AppleWebKit/537.36 (KHTML, like Gecko) Version/4.0 Chrome/146.0.7680.120 Mobile Safari/537.36","416","765","420","","1528","<div class=""prompt"" style=""font-size:24px; margin-bottom:20px;"">Which word describes you more?</div>","0","pairing","1","anxious","smiley","PosNeg","86","14","negative","positive","72","anxious","left","true"
"html-keyboard-response","4","8405","0.0-2.0-0.1","1045","20","pre","7","afternoon","2026-03-19","2026-03-31","2026-03-25T22:13:58.718Z","Mozilla/5.0 (Linux; Android 16; Pixel 10 Pro XL Build/BD3A.251105.010.E1; wv) AppleWebKit/537.36 (KHTML, like Gecko) Version/4.0 Chrome/146.0.7680.120 Mobile Safari/537.36","416","765","420","","null","<div style=""font-size:60px;"">+</div>","null","fixation","","","","","","","","","","","",""
"html-button-response","5","9736","0.0-2.0-1.1","1045","20","pre","7","afternoon","2026-03-19","2026-03-31","2026-03-25T22:13:58.718Z","Mozilla/5.0 (Linux; Android 16; Pixel 10 Pro XL Build/BD3A.251105.010.E1; wv) AppleWebKit/537.36 (KHTML, like Gecko) Version/4.0 Chrome/146.0.7680.120 Mobile Safari/537.36","416","765","420","","1328","<div class=""prompt"" style=""font-size:24px; margin-bottom:20px;"">Which word describes you more?</div>","1","pairing","2","disgrace","gloomy","NegNeg","0","72","negative","negative","72","gloomy","right","true"
"html-keyboard-response","6","10540","0.0-2.0-0.2","1045","20","pre","7","afternoon","2026-03-19","2026-03-31","2026-03-25T22:13:58.718Z","Mozilla/5.0 (Linux; Android 16; Pixel 10 Pro XL Build/BD3A.251105.010.E1; wv) AppleWebKit/537.36 (KHTML, like Gecko) Version/4.0 Chrome/146.0.7680.120 Mobile Safari/537.36","416","765","420","","null","<div style=""font-size:60px;"">+</div>","null","fixation","","","","","","","","","","","",""
"html-button-response","7","11938","0.0-2.0-1.2","1045","20","pre","7","afternoon","2026-03-19","2026-03-31","2026-03-25T22:13:58.718Z","Mozilla/5.0 (Linux; Android 16; Pixel 10 Pro XL Build/BD3A.251105.010.E1; wv) AppleWebKit/537.36 (KHTML, like Gecko) Version/4.0 Chrome/146.0.7680.120 Mobile Safari/537.36","416","765","420","","1392","<div class=""prompt"" style=""font-size:24px; margin-bottom:20px;"">Which word describes you more?</div>","0","pairing","3","smart","alone","PosNeg","74","84","positive","negative","10","smart","left","true"
"html-keyboard-response","8","12743","0.0-2.0-0.3","1045","20","pre","7","afternoon","2026-03-19","2026-03-31","2026-03-25T22:13:58.718Z","Mozilla/5.0 (Linux; Android 16; Pixel 10 Pro XL Build/BD3A.251105.010.E1; wv) AppleWebKit/537.36 (KHTML, like Gecko) Version/4.0 Chrome/146.0.7680.120 Mobile Safari/537.36","416","765","420","","null","<div style=""font-size:60px;"">+</div>","null","fixation","","","","","","","","","","","",""
"html-button-response","9","14950","0.0-2.0-1.3","1045","20","pre","7","afternoon","2026-03-19","2026-03-31","2026-03-25T22:13:58.718Z","Mozilla/5.0 (Linux; Android 16; Pixel 10 Pro XL Build/BD3A.251105.010.E1; wv) AppleWebKit/537.36 (KHTML, like Gecko) Version/4.0 Chrome/146.0.7680.120 Mobile Safari/537.36","416","765","420","","2204","<div class=""prompt"" style=""font-size:24px; margin-bottom:20px;"">Which word describes you more?</div>","1","pairing","4","smiley","hesitant","PosNeg","14","81","positive","negative","67","hesitant","right","true"
"html-keyboard-response","10","15753","0.0-2.0-0.4","1045","20","pre","7","afternoon","2026-03-19","2026-03-31","2026-03-25T22:13:58.718Z","Mozilla/5.0 (Linux; Android 16; Pixel 10 Pro XL Build/BD3A.251105.010.E1; wv) AppleWebKit/537.36 (KHTML, like Gecko) Version/4.0 Chrome/146.0.7680.120 Mobile Safari/537.36","416","765","420","","null","<div style=""font-size:60px;"">+</div>","null","fixation","","","","","","","","","","","",""
"html-button-response","11","17435","0.0-2.0-1.4","1045","20","pre","7","afternoon","2026-03-19","2026-03-31","2026-03-25T22:13:58.718Z","Mozilla/5.0 (Linux; Android 16; Pixel 10 Pro XL Build/BD3A.251105.010.E1; wv) AppleWebKit/537.36 (KHTML, like Gecko) Version/4.0 Chrome/146.0.7680.120 Mobile Safari/537.36","416","765","420","","1678","<div class=""prompt"" style=""font-size:24px; margin-bottom:20px;"">Which word describes you more?</div>","1","pairing","5","smiley","cooperative","PosPos","14","97","positive","positive","83","cooperative","right","true"
"html-keyboard-response","12","18240","0.0-2.0-0.5","1045","20","pre","7","afternoon","2026-03-19","2026-03-31","2026-03-25T22:13:58.718Z","Mozilla/5.0 (Linux; Android 16; Pixel 10 Pro XL Build/BD3A.251105.010.E1; wv) AppleWebKit/537.36 (KHTML, like Gecko) Version/4.0 Chrome/146.0.7680.120 Mobile Safari/537.36","416","765","420","","null","<div style=""font-size:60px;"">+</div>","null","fixation","","","","","","","","","","","",""
"html-button-response","13","23248","0.0-2.0-1.5","1045","20","pre","7","afternoon","2026-03-19","2026-03-31","2026-03-25T22:13:58.718Z","Mozilla/5.0 (Linux; Android 16; Pixel 10 Pro XL Build/BD3A.251105.010.E1; wv) AppleWebKit/537.36 (KHTML, like Gecko) Version/4.0 Chrome/146.0.7680.120 Mobile Safari/537.36","416","765","420","","null","<div class=""prompt"" style=""font-size:24px; margin-bottom:20px;"">Which word describes you more?</div>","null","pairing","6","lovable","authentic","PosPos","49","85","positive","positive","36","null","null","false"
"html-keyboard-response","14","24052","0.0-2.0-0.6","1045","20","pre","7","afternoon","2026-03-19","2026-03-31","2026-03-25T22:13:58.718Z","Mozilla/5.0 (Linux; Android 16; Pixel 10 Pro XL Build/BD3A.251105.010.E1; wv) AppleWebKit/537.36 (KHTML, like Gecko) Version/4.0 Chrome/146.0.7680.120 Mobile Safari/537.36","416","765","420","","null","<div style=""font-size:60px;"">+</div>","null","fixation","","","","","","","","","","","",""
"html-button-response","15","26167","0.0-2.0-1.6","1045","20","pre","7","afternoon","2026-03-19","2026-03-31","2026-03-25T22:13:58.718Z","Mozilla/5.0 (Linux; Android 16; Pixel 10 Pro XL Build/BD3A.251105.010.E1; wv) AppleWebKit/537.36 (KHTML, like Gecko) Version/4.0 Chrome/146.0.7680.120 Mobile Safari/537.36","416","765","420","","2101","<div class=""prompt"" style=""font-size:24px; margin-bottom:20px;"">Which word describes you more?</div>","1","pairing","7","delight","hateful","PosNeg","83","11","positive","negative","72","hateful","right","true"
"html-keyboard-response","16","26971","0.0-2.0-0.7","1045","20","pre","7","afternoon","2026-03-19","2026-03-31","2026-03-25T22:13:58.718Z","Mozilla/5.0 (Linux; Android 16; Pixel 10 Pro XL Build/BD3A.251105.010.E1; wv) AppleWebKit/537.36 (KHTML, like Gecko) Version/4.0 Chrome/146.0.7680.120 Mobile Safari/537.36","416","765","420","","null","<div style=""font-size:60px;"">+</div>","null","fixation","","","","","","","","","","","",""
"html-button-response","17","29042","0.0-2.0-1.7","1045","20","pre","7","afternoon","2026-03-19","2026-03-31","2026-03-25T22:13:58.718Z","Mozilla/5.0 (Linux; Android 16; Pixel 10 Pro XL Build/BD3A.251105.010.E1; wv) AppleWebKit/537.36 (KHTML, like Gecko) Version/4.0 Chrome/146.0.7680.120 Mobile Safari/537.36","416","765","420","","2066","<div class=""prompt"" style=""font-size:24px; margin-bottom:20px;"">Which word describes you more?</div>","1","pairing","8","coward","unfaithful","NegNeg","7","0","negative","negative","7","unfaithful","right","true"
"html-keyboard-response","18","29847","0.0-2.0-0.8","1045","20","pre","7","afternoon","2026-03-19","2026-03-31","2026-03-25T22:13:58.718Z","Mozilla/5.0 (Linux; Android 16; Pixel 10 Pro XL Build/BD3A.251105.010.E1; wv) AppleWebKit/537.36 (KHTML, like Gecko) Version/4.0 Chrome/146.0.7680.120 Mobile Safari/537.36","416","765","420","","null","<div style=""font-size:60px;"">+</div>","null","fixation","","","","","","","","","","","",""
"html-button-response","19","32037","0.0-2.0-1.8","1045","20","pre","7","afternoon","2026-03-19","2026-03-31","2026-03-25T22:13:58.718Z","Mozilla/5.0 (Linux; Android 16; Pixel 10 Pro XL Build/BD3A.251105.010.E1; wv) AppleWebKit/537.36 (KHTML, like Gecko) Version/4.0 Chrome/146.0.7680.120 Mobile Safari/537.36","416","765","420","","2186","<div class=""prompt"" style=""font-size:24px; margin-bottom:20px;"">Which word describes you more?</div>","1","pairing","9","phony","carefree","PosNeg","15","36","negative","positive","21","carefree","right","true"
"html-keyboard-response","20","32840","0.0-2.0-0.9","1045","20","pre","7","afternoon","2026-03-19","2026-03-31","2026-03-25T22:13:58.718Z","Mozilla/5.0 (Linux; Android 16; Pixel 10 Pro XL Build/BD3A.251105.010.E1; wv) AppleWebKit/537.36 (KHTML, like Gecko) Version/4.0 Chrome/146.0.7680.120 Mobile Safari/537.36","416","765","420","","null","<div style=""font-size:60px;"">+</div>","null","fixation","","","","","","","","","","","",""
"html-button-response","21","35242","0.0-2.0-1.9","1045","20","pre","7","afternoon","2026-03-19","2026-03-31","2026-03-25T22:13:58.718Z","Mozilla/5.0 (Linux; Android 16; Pixel 10 Pro XL Build/BD3A.251105.010.E1; wv) AppleWebKit/537.36 (KHTML, like Gecko) Version/4.0 Chrome/146.0.7680.120 Mobile Safari/537.36","416","765","420","","2394","<div class=""prompt"" style=""font-size:24px; margin-bottom:20px;"">Which word describes you more?</div>","0","pairing","10","fool","blissful","PosNeg","63","59","negative","positive","4","fool","left","true"
"html-keyboard-response","22","36047","0.0-2.0-0.10","1045","20","pre","7","afternoon","2026-03-19","2026-03-31","2026-03-25T22:13:58.718Z","Mozilla/5.0 (Linux; Android 16; Pixel 10 Pro XL Build/BD3A.251105.010.E1; wv) AppleWebKit/537.36 (KHTML, like Gecko) Version/4.0 Chrome/146.0.7680.120 Mobile Safari/537.36","416","765","420","","null","<div style=""font-size:60px;"">+</div>","null","fixation","","","","","","","","","","","",""
"html-button-response","23","37982","0.0-2.0-1.10","1045","20","pre","7","afternoon","2026-03-19","2026-03-31","2026-03-25T22:13:58.718Z","Mozilla/5.0 (Linux; Android 16; Pixel 10 Pro XL Build/BD3A.251105.010.E1; wv) AppleWebKit/537.36 (KHTML, like Gecko) Version/4.0 Chrome/146.0.7680.120 Mobile Safari/537.36","416","765","420","","1928","<div class=""prompt"" style=""font-size:24px; margin-bottom:20px;"">Which word describes you more?</div>","1","pairing","11","terrible","companion","PosNeg","4","64","negative","positive","60","companion","right","true"
"html-keyboard-response","24","38785","0.0-2.0-0.11","1045","20","pre","7","afternoon","2026-03-19","2026-03-31","2026-03-25T22:13:58.718Z","Mozilla/5.0 (Linux; Android 16; Pixel 10 Pro XL Build/BD3A.251105.010.E1; wv) AppleWebKit/537.36 (KHTML, like Gecko) Version/4.0 Chrome/146.0.7680.120 Mobile Safari/537.36","416","765","420","","null","<div style=""font-size:60px;"">+</div>","null","fixation","","","","","","","","","","","",""
"html-button-response","25","40863","0.0-2.0-1.11","1045","20","pre","7","afternoon","2026-03-19","2026-03-31","2026-03-25T22:13:58.718Z","Mozilla/5.0 (Linux; Android 16; Pixel 10 Pro XL Build/BD3A.251105.010.E1; wv) AppleWebKit/537.36 (KHTML, like Gecko) Version/4.0 Chrome/146.0.7680.120 Mobile Safari/537.36","416","765","420","","2075","<div class=""prompt"" style=""font-size:24px; margin-bottom:20px;"">Which word describes you more?</div>","0","pairing","12","authentic","tolerant","PosPos","85","72","positive","positive","13","authentic","left","true"
"html-keyboard-response","26","41666","0.0-2.0-0.12","1045","20","pre","7","afternoon","2026-03-19","2026-03-31","2026-03-25T22:13:58.718Z","Mozilla/5.0 (Linux; Android 16; Pixel 10 Pro XL Build/BD3A.251105.010.E1; wv) AppleWebKit/537.36 (KHTML, like Gecko) Version/4.0 Chrome/146.0.7680.120 Mobile Safari/537.36","416","765","420","","null","<div style=""font-size:60px;"">+</div>","null","fixation","","","","","","","","","","","",""
"html-button-response","27","43249","0.0-2.0-1.12","1045","20","pre","7","afternoon","2026-03-19","2026-03-31","2026-03-25T22:13:58.718Z","Mozilla/5.0 (Linux; Android 16; Pixel 10 Pro XL Build/BD3A.251105.010.E1; wv) AppleWebKit/537.36 (KHTML, like Gecko) Version/4.0 Chrome/146.0.7680.120 Mobile Safari/537.36","416","765","420","","1580","<div class=""prompt"" style=""font-size:24px; margin-bottom:20px;"">Which word describes you more?</div>","0","pairing","13","learner","negligent","PosNeg","100","35","positive","negative","65","learner","left","true"
"html-keyboard-response","28","44052","0.0-2.0-0.13","1045","20","pre","7","afternoon","2026-03-19","2026-03-31","2026-03-25T22:13:58.718Z","Mozilla/5.0 (Linux; Android 16; Pixel 10 Pro XL Build/BD3A.251105.010.E1; wv) AppleWebKit/537.36 (KHTML, like Gecko) Version/4.0 Chrome/146.0.7680.120 Mobile Safari/537.36","416","765","420","","null","<div style=""font-size:60px;"">+</div>","null","fixation","","","","","","","","","","","",""
"html-button-response","29","48933","0.0-2.0-1.13","1045","20","pre","7","afternoon","2026-03-19","2026-03-31","2026-03-25T22:13:58.718Z","Mozilla/5.0 (Linux; Android 16; Pixel 10 Pro XL Build/BD3A.251105.010.E1; wv) AppleWebKit/537.36 (KHTML, like Gecko) Version/4.0 Chrome/146.0.7680.120 Mobile Safari/537.36","416","765","420","","4877","<div class=""prompt"" style=""font-size:24px; margin-bottom:20px;"">Which word describes you more?</div>","1","pairing","14","companion","tolerant","PosPos","64","72","positive","positive","8","tolerant","right","true"
"html-keyboard-response","30","49735","0.0-2.0-0.14","1045","20","pre","7","afternoon","2026-03-19","2026-03-31","2026-03-25T22:13:58.718Z","Mozilla/5.0 (Linux; Android 16; Pixel 10 Pro XL Build/BD3A.251105.010.E1; wv) AppleWebKit/537.36 (KHTML, like Gecko) Version/4.0 Chrome/146.0.7680.120 Mobile Safari/537.36","416","765","420","","null","<div style=""font-size:60px;"">+</div>","null","fixation","","","","","","","","","","","",""
"html-button-response","31","51411","0.0-2.0-1.14","1045","20","pre","7","afternoon","2026-03-19","2026-03-31","2026-03-25T22:13:58.718Z","Mozilla/5.0 (Linux; Android 16; Pixel 10 Pro XL Build/BD3A.251105.010.E1; wv) AppleWebKit/537.36 (KHTML, like Gecko) Version/4.0 Chrome/146.0.7680.120 Mobile Safari/537.36","416","765","420","","1674","<div class=""prompt"" style=""font-size:24px; margin-bottom:20px;"">Which word describes you more?</div>","0","pairing","15","courteous","flawless","PosPos","84","1","positive","positive","83","courteous","left","true"
"html-keyboard-response","32","52215","0.0-2.0-0.15","1045","20","pre","7","afternoon","2026-03-19","2026-03-31","2026-03-25T22:13:58.718Z","Mozilla/5.0 (Linux; Android 16; Pixel 10 Pro XL Build/BD3A.251105.010.E1; wv) AppleWebKit/537.36 (KHTML, like Gecko) Version/4.0 Chrome/146.0.7680.120 Mobile Safari/537.36","416","765","420","","null","<div style=""font-size:60px;"">+</div>","null","fixation","","","","","","","","","","","",""
"html-button-response","33","53208","0.0-2.0-1.15","1045","20","pre","7","afternoon","2026-03-19","2026-03-31","2026-03-25T22:13:58.718Z","Mozilla/5.0 (Linux; Android 16; Pixel 10 Pro XL Build/BD3A.251105.010.E1; wv) AppleWebKit/537.36 (KHTML, like Gecko) Version/4.0 Chrome/146.0.7680.120 Mobile Safari/537.36","416","765","420","","986","<div class=""prompt"" style=""font-size:24px; margin-bottom:20px;"">Which word describes you more?</div>","0","pairing","16","awkward","coward","NegNeg","78","7","negative","negative","71","awkward","left","true"
"html-keyboard-response","34","54011","0.0-2.0-0.16","1045","20","pre","7","afternoon","2026-03-19","2026-03-31","2026-03-25T22:13:58.718Z","Mozilla/5.0 (Linux; Android 16; Pixel 10 Pro XL Build/BD3A.251105.010.E1; wv) AppleWebKit/537.36 (KHTML, like Gecko) Version/4.0 Chrome/146.0.7680.120 Mobile Safari/537.36","416","765","420","","null","<div style=""font-size:60px;"">+</div>","null","fixation","","","","","","","","","","","",""
"html-button-response","35","55557","0.0-2.0-1.16","1045","20","pre","7","afternoon","2026-03-19","2026-03-31","2026-03-25T22:13:58.718Z","Mozilla/5.0 (Linux; Android 16; Pixel 10 Pro XL Build/BD3A.251105.010.E1; wv) AppleWebKit/537.36 (KHTML, like Gecko) Version/4.0 Chrome/146.0.7680.120 Mobile Safari/537.36","416","765","420","","1543","<div class=""prompt"" style=""font-size:24px; margin-bottom:20px;"">Which word describes you more?</div>","0","pairing","17","arrogant","clever","PosNeg","23","90","negative","positive","67","arrogant","left","true"
"html-keyboard-response","36","56361","0.0-2.0-0.17","1045","20","pre","7","afternoon","2026-03-19","2026-03-31","2026-03-25T22:13:58.718Z","Mozilla/5.0 (Linux; Android 16; Pixel 10 Pro XL Build/BD3A.251105.010.E1; wv) AppleWebKit/537.36 (KHTML, like Gecko) Version/4.0 Chrome/146.0.7680.120 Mobile Safari/537.36","416","765","420","","null","<div style=""font-size:60px;"">+</div>","null","fixation","","","","","","","","","","","",""
"html-button-response","37","58870","0.0-2.0-1.17","1045","20","pre","7","afternoon","2026-03-19","2026-03-31","2026-03-25T22:13:58.718Z","Mozilla/5.0 (Linux; Android 16; Pixel 10 Pro XL Build/BD3A.251105.010.E1; wv) AppleWebKit/537.36 (KHTML, like Gecko) Version/4.0 Chrome/146.0.7680.120 Mobile Safari/537.36","416","765","420","","2503","<div class=""prompt"" style=""font-size:24px; margin-bottom:20px;"">Which word describes you more?</div>","0","pairing","18","awful","irresponsible","NegNeg","0","54","negative","negative","54","awful","left","true"
"html-keyboard-response","38","59675","0.0-2.0-0.18","1045","20","pre","7","afternoon","2026-03-19","2026-03-31","2026-03-25T22:13:58.718Z","Mozilla/5.0 (Linux; Android 16; Pixel 10 Pro XL Build/BD3A.251105.010.E1; wv) AppleWebKit/537.36 (KHTML, like Gecko) Version/4.0 Chrome/146.0.7680.120 Mobile Safari/537.36","416","765","420","","null","<div style=""font-size:60px;"">+</div>","null","fixation","","","","","","","","","","","",""
"html-button-response","39","61181","0.0-2.0-1.18","1045","20","pre","7","afternoon","2026-03-19","2026-03-31","2026-03-25T22:13:58.718Z","Mozilla/5.0 (Linux; Android 16; Pixel 10 Pro XL Build/BD3A.251105.010.E1; wv) AppleWebKit/537.36 (KHTML, like Gecko) Version/4.0 Chrome/146.0.7680.120 Mobile Safari/537.36","416","765","420","","1498","<div class=""prompt"" style=""font-size:24px; margin-bottom:20px;"">Which word describes you more?</div>","0","pairing","19","regretful","unfaithful","NegNeg","56","0","negative","negative","56","regretful","left","true"
"html-keyboard-response","40","61986","0.0-2.0-0.19","1045","20","pre","7","afternoon","2026-03-19","2026-03-31","2026-03-25T22:13:58.718Z","Mozilla/5.0 (Linux; Android 16; Pixel 10 Pro XL Build/BD3A.251105.010.E1; wv) AppleWebKit/537.36 (KHTML, like Gecko) Version/4.0 Chrome/146.0.7680.120 Mobile Safari/537.36","416","765","420","","null","<div style=""font-size:60px;"">+</div>","null","fixation","","","","","","","","","","","",""
"html-button-response","41","64189","0.0-2.0-1.19","1045","20","pre","7","afternoon","2026-03-19","2026-03-31","2026-03-25T22:13:58.718Z","Mozilla/5.0 (Linux; Android 16; Pixel 10 Pro XL Build/BD3A.251105.010.E1; wv) AppleWebKit/537.36 (KHTML, like Gecko) Version/4.0 Chrome/146.0.7680.120 Mobile Safari/537.36","416","765","420","","2197","<div class=""prompt"" style=""font-size:24px; margin-bottom:20px;"">Which word describes you more?</div>","0","pairing","20","courteous","carefree","PosPos","84","36","positive","positive","48","courteous","left","true"
"html-keyboard-response","42","64992","0.0-2.0-0.20","1045","20","pre","7","afternoon","2026-03-19","2026-03-31","2026-03-25T22:13:58.718Z","Mozilla/5.0 (Linux; Android 16; Pixel 10 Pro XL Build/BD3A.251105.010.E1; wv) AppleWebKit/537.36 (KHTML, like Gecko) Version/4.0 Chrome/146.0.7680.120 Mobile Safari/537.36","416","765","420","","null","<div style=""font-size:60px;"">+</div>","null","fixation","","","","","","","","","","","",""
"html-button-response","43","67669","0.0-2.0-1.20","1045","20","pre","7","afternoon","2026-03-19","2026-03-31","2026-03-25T22:13:58.718Z","Mozilla/5.0 (Linux; Android 16; Pixel 10 Pro XL Build/BD3A.251105.010.E1; wv) AppleWebKit/537.36 (KHTML, like Gecko) Version/4.0 Chrome/146.0.7680.120 Mobile Safari/537.36","416","765","420","","2674","<div class=""prompt"" style=""font-size:24px; margin-bottom:20px;"">Which word describes you more?</div>","0","pairing","21","decisive","irresponsible","PosNeg","70","54","positive","negative","16","decisive","left","true"
"html-keyboard-response","44","68473","0.0-2.0-0.21","1045","20","pre","7","afternoon","2026-03-19","2026-03-31","2026-03-25T22:13:58.718Z","Mozilla/5.0 (Linux; Android 16; Pixel 10 Pro XL Build/BD3A.251105.010.E1; wv) AppleWebKit/537.36 (KHTML, like Gecko) Version/4.0 Chrome/146.0.7680.120 Mobile Safari/537.36","416","765","420","","null","<div style=""font-size:60px;"">+</div>","null","fixation","","","","","","","","","","","",""
"html-button-response","45","71140","0.0-2.0-1.21","1045","20","pre","7","afternoon","2026-03-19","2026-03-31","2026-03-25T22:13:58.718Z","Mozilla/5.0 (Linux; Android 16; Pixel 10 Pro XL Build/BD3A.251105.010.E1; wv) AppleWebKit/537.36 (KHTML, like Gecko) Version/4.0 Chrome/146.0.7680.120 Mobile Safari/537.36","416","765","420","","2661","<div class=""prompt"" style=""font-size:24px; margin-bottom:20px;"">Which word describes you more?</div>","1","pairing","22","fool","satisfied","PosNeg","63","16","negative","positive","47","satisfied","right","true"
"html-keyboard-response","46","71944","0.0-2.0-0.22","1045","20","pre","7","afternoon","2026-03-19","2026-03-31","2026-03-25T22:13:58.718Z","Mozilla/5.0 (Linux; Android 16; Pixel 10 Pro XL Build/BD3A.251105.010.E1; wv) AppleWebKit/537.36 (KHTML, like Gecko) Version/4.0 Chrome/146.0.7680.120 Mobile Safari/537.36","416","765","420","","null","<div style=""font-size:60px;"">+</div>","null","fixation","","","","","","","","","","","",""
"html-button-response","47","73693","0.0-2.0-1.22","1045","20","pre","7","afternoon","2026-03-19","2026-03-31","2026-03-25T22:13:58.718Z","Mozilla/5.0 (Linux; Android 16; Pixel 10 Pro XL Build/BD3A.251105.010.E1; wv) AppleWebKit/537.36 (KHTML, like Gecko) Version/4.0 Chrome/146.0.7680.120 Mobile Safari/537.36","416","765","420","","1742","<div class=""prompt"" style=""font-size:24px; margin-bottom:20px;"">Which word describes you more?</div>","0","pairing","23","idealistic","unlucky","PosNeg","20","60","positive","negative","40","idealistic","left","true"
"html-keyboard-response","48","74496","0.0-2.0-0.23","1045","20","pre","7","afternoon","2026-03-19","2026-03-31","2026-03-25T22:13:58.718Z","Mozilla/5.0 (Linux; Android 16; Pixel 10 Pro XL Build/BD3A.251105.010.E1; wv) AppleWebKit/537.36 (KHTML, like Gecko) Version/4.0 Chrome/146.0.7680.120 Mobile Safari/537.36","416","765","420","","null","<div style=""font-size:60px;"">+</div>","null","fixation","","","","","","","","","","","",""
"html-button-response","49","79500","0.0-2.0-1.23","1045","20","pre","7","afternoon","2026-03-19","2026-03-31","2026-03-25T22:13:58.718Z","Mozilla/5.0 (Linux; Android 16; Pixel 10 Pro XL Build/BD3A.251105.010.E1; wv) AppleWebKit/537.36 (KHTML, like Gecko) Version/4.0 Chrome/146.0.7680.120 Mobile Safari/537.36","416","765","420","","null","<div class=""prompt"" style=""font-size:24px; margin-bottom:20px;"">Which word describes you more?</div>","null","pairing","24","untrustworthy","helpless","NegNeg","20","39","negative","negative","19","null","null","false"
"instructions","50","80524","0.0-3.0","1045","20","pre","7","afternoon","2026-03-19","2026-03-31","2026-03-25T22:13:58.718Z","Mozilla/5.0 (Linux; Android 16; Pixel 10 Pro XL Build/BD3A.251105.010.E1; wv) AppleWebKit/537.36 (KHTML, like Gecko) Version/4.0 Chrome/146.0.7680.120 Mobile Safari/537.36","416","765","420","[{""page_index"":0,""viewing_time"":1021}]","1022","","","","","","","","","","","","","","",""
