"trial_type","trial_index","time_elapsed","internal_node_id","PUNS_ID","session_number","session_phase","session_day","session_slot","ema_start_date","ema_post_start_date","experiment_start","browser","screen_width","screen_height","timezone_offset","view_history","rt","stimulus","response","which_experiment_phase","trial_number","left_word","right_word","valence","left_base_rating","right_base_rating","left_valence","right_valence","abs_diff","participant_response","chosen_side","valid_response"
"pavlovia","0","1960","0.0-0.0","1013","29","pre","10","afternoon","2026-02-05","2026-02-17","2026-02-15T00:57:20.314Z","Mozilla/5.0 (iPhone; CPU iPhone OS 18_1_1 like Mac OS X) AppleWebKit/605.1.15 (KHTML, like Gecko) Mobile/15E148","358","632","480","","","","","","","","","","","","","","","","",""
"instructions","1","30324","0.0-1.0","1013","29","pre","10","afternoon","2026-02-05","2026-02-17","2026-02-15T00:57:20.314Z","Mozilla/5.0 (iPhone; CPU iPhone OS 18_1_1 like Mac OS X) AppleWebKit/605.1.15 (KHTML, like Gecko) Mobile/15E148","358","632","480","[{""page_index"":0,""viewing_time"":1732},{""page_index"":1,""viewing_time"":1101},{""page_index"":2,""viewing_time"":22404},{""page_index"":3,""viewing_time"":3123}]","28361","","","","","","","","","","","","","","",""
"html-keyboard-response","2","31128","0.0-2.0-0.0","1013","29","pre","10","afternoon","2026-02-05","2026-02-17","2026-02-15T00:57:20.314Z","Mozilla/5.0 (iPhone; CPU iPhone OS 18_1_1 like Mac OS X) AppleWebKit/605.1.15 (KHTML, like Gecko) Mobile/15E148","358","632","480","","null","<div style=""font-size:60px;"">+</div>","null","fixation","","","","","","","","","","","",""
"html-button-response","3","33253","0.0-2.0-1.0","1013","29","pre","10","afternoon","2026-02-05","2026-02-17","2026-02-15T00:57:20.314Z","Mozilla/5.0 (iPhone; CPU iPhone OS 18_1_1 like Mac OS X) AppleWebKit/605.1.15 (KHTML, like Gecko) Mobile/15E148","358","632","480","","2120","<div class=""prompt"" style=""font-size:24px; margin-bottom:20px;"">Which word describes you more?</div>","1","pairing","1","blissful","headache","PosNeg","3","24","positive","negative","21","headache","right","true"
"html-keyboard-response","4","34057","0.0-2.0-0.1","1013","29","pre","10","afternoon","2026-02-05","2026-02-17","2026-02-15T00:57:20.314Z","Mozilla/5.0 (iPhone; CPU iPhone OS 18_1_1 like Mac OS X) AppleWebKit/605.1.15 (KHTML, like Gecko) Mobile/15E148","358","632","480","","null","<div style=""font-size:60px;"">+</div>","null","fixation","","","","","","","","","","","",""
"html-button-response","5","37703","0.0-2.0-1.1","1013","29","pre","10","afternoon","2026-02-05","2026-02-17","2026-02-15T00:57:20.314Z","Mozilla/5.0 (iPhone; CPU iPhone OS 18_1_1 like Mac OS X) AppleWebKit/605.1.15 (KHTML, like Gecko) Mobile/15E148","358","632","480","","3643","<div class=""prompt"" style=""font-size:24px; margin-bottom:20px;"">Which word describes you more?</div>","0","pairing","2","merciful","bitter","PosNeg","6","85","positive","negative","79","merciful","left","true"
"html-keyboard-response","6","38505","0.0-2.0-0.2","1013","29","pre","10","afternoon","2026-02-05","2026-02-17","2026-02-15T00:57:20.314Z","Mozilla/5.0 (iPhone; CPU iPhone OS 18_1_1 like Mac OS X) AppleWebKit/605.1.15 (KHTML, like Gecko) Mobile/15E148","358","632","480","","null","<div style=""font-size:60px;"">+</div>","null","fixation","","","","","","","","","","","",""
"html-button-response","7","41087","0.0-2.0-1.2","1013","29","pre","10","afternoon","2026-02-05","2026-02-17","2026-02-15T00:57:20.314Z","Mozilla/5.0 (iPhone; CPU iPhone OS 18_1_1 like Mac OS X) AppleWebKit/605.1.15 (KHTML, like Gecko) Mobile/15E148","358","632","480","","2579","<div class=""prompt"" style=""font-size:24px; margin-bottom:20px;"">Which word describes you more?</div>","1","pairing","3","annoying","awkward","NegNeg","10","50","negative","negative","40","awkward","right","true"
"html-keyboard-response","8","41892","0.0-2.0-0.3","1013","29","pre","10","afternoon","2026-02-05","2026-02-17","2026-02-15T00:57:20.314Z","Mozilla/5.0 (iPhone; CPU iPhone OS 18_1_1 like Mac OS X) AppleWebKit/605.1.15 (KHTML, like Gecko) Mobile/15E148","358","632","480","","null","<div style=""font-size:60px;"">+</div>","null","fixation","","","","","","","","","","","",""
"html-button-response","9","43823","0.0-2.0-1.3","1013","29","pre","10","afternoon","2026-02-05","2026-02-17","2026-02-15T00:57:20.314Z","Mozilla/5.0 (iPhone; CPU iPhone OS 18_1_1 like Mac OS X) AppleWebKit/605.1.15 (KHTML, like Gecko) Mobile/15E148","358","632","480","","1929","<div class=""prompt"" style=""font-size:24px; margin-bottom:20px;"">Which word describes you more?</div>","0","pairing","4","humorous","defective","PosNeg","75","1","positive","negative","74","humorous","left","true"
"html-keyboard-response","10","44626","0.0-2.0-0.4","1013","29","pre","10","afternoon","2026-02-05","2026-02-17","2026-02-15T00:57:20.314Z","Mozilla/5.0 (iPhone; CPU iPhone OS 18_1_1 like Mac OS X) AppleWebKit/605.1.15 (KHTML, like Gecko) Mobile/15E148","358","632","480","","null","<div style=""font-size:60px;"">+</div>","null","fixation","","","","","","","","","","","",""
"html-button-response","11","48055","0.0-2.0-1.4","1013","29","pre","10","afternoon","2026-02-05","2026-02-17","2026-02-15T00:57:20.314Z","Mozilla/5.0 (iPhone; CPU iPhone OS 18_1_1 like Mac OS X) AppleWebKit/605.1.15 (KHTML, like Gecko) Mobile/15E148","358","632","480","","3427","<div class=""prompt"" style=""font-size:24px; margin-bottom:20px;"">Which word describes you more?</div>","1","pairing","5","comfortable","capable","PosPos","69","61","positive","positive","8","capable","right","true"
"html-keyboard-response","12","48857","0.0-2.0-0.5","1013","29","pre","10","afternoon","2026-02-05","2026-02-17","2026-02-15T00:57:20.314Z","Mozilla/5.0 (iPhone; CPU iPhone OS 18_1_1 like Mac OS X) AppleWebKit/605.1.15 (KHTML, like Gecko) Mobile/15E148","358","632","480","","null","<div style=""font-size:60px;"">+</div>","null","fixation","","","","","","","","","","","",""
"html-button-response","13","53034","0.0-2.0-1.5","1013","29","pre","10","afternoon","2026-02-05","2026-02-17","2026-02-15T00:57:20.314Z","Mozilla/5.0 (iPhone; CPU iPhone OS 18_1_1 like Mac OS X) AppleWebKit/605.1.15 (KHTML, like Gecko) Mobile/15E148","358","632","480","","4173","<div class=""prompt"" style=""font-size:24px; margin-bottom:20px;"">Which word describes you more?</div>","0","pairing","6","authentic","ambitious","PosPos","86","50","positive","positive","36","authentic","left","true"
"html-keyboard-response","14","53837","0.0-2.0-0.6","1013","29","pre","10","afternoon","2026-02-05","2026-02-17","2026-02-15T00:57:20.314Z","Mozilla/5.0 (iPhone; CPU iPhone OS 18_1_1 like Mac OS X) AppleWebKit/605.1.15 (KHTML, like Gecko) Mobile/15E148","358","632","480","","null","<div style=""font-size:60px;"">+</div>","null","fixation","","","","","","","","","","","",""
"html-button-response","15","55934","0.0-2.0-1.6","1013","29","pre","10","afternoon","2026-02-05","2026-02-17","2026-02-15T00:57:20.314Z","Mozilla/5.0 (iPhone; CPU iPhone OS 18_1_1 like Mac OS X) AppleWebKit/605.1.15 (KHTML, like Gecko) Mobile/15E148","358","632","480","","2094","<div class=""prompt"" style=""font-size:24px; margin-bottom:20px;"">Which word describes you more?</div>","0","pairing","7","heartbroken","scoundrel","NegNeg","100","0","negative","negative","100","heartbroken","left","true"
"html-keyboard-response","16","56738","0.0-2.0-0.7","1013","29","pre","10","afternoon","2026-02-05","2026-02-17","2026-02-15T00:57:20.314Z","Mozilla/5.0 (iPhone; CPU iPhone OS 18_1_1 like Mac OS X) AppleWebKit/605.1.15 (KHTML, like Gecko) Mobile/15E148","358","632","480","","null","<div style=""font-size:60px;"">+</div>","null","fixation","","","","","","","","","","","",""
"html-button-response","17","58836","0.0-2.0-1.7","1013","29","pre","10","afternoon","2026-02-05","2026-02-17","2026-02-15T00:57:20.314Z","Mozilla/5.0 (iPhone; CPU iPhone OS 18_1_1 like Mac OS X) AppleWebKit/605.1.15 (KHTML, like Gecko) Mobile/15E148","358","632","480","","2095","<div class=""prompt"" style=""font-size:24px; margin-bottom:20px;"">Which word describes you more?</div>","1","pairing","8","disloyal","heartbroken","NegNeg","1","100","negative","negative","99","heartbroken","right","true"
"html-keyboard-response","18","59640","0.0-2.0-0.8","1013","29","pre","10","afternoon","2026-02-05","2026-02-17","2026-02-15T00:57:20.314Z","Mozilla/5.0 (iPhone; CPU iPhone OS 18_1_1 like Mac OS X) AppleWebKit/605.1.15 (KHTML, like Gecko) Mobile/15E148","358","632","480","","null","<div style=""font-size:60px;"">+</div>","null","fixation","","","","","","","","","","","",""
"html-button-response","19","61523","0.0-2.0-1.8","1013","29","pre","10","afternoon","2026-02-05","2026-02-17","2026-02-15T00:57:20.314Z","Mozilla/5.0 (iPhone; CPU iPhone OS 18_1_1 like Mac OS X) AppleWebKit/605.1.15 (KHTML, like Gecko) Mobile/15E148","358","632","480","","1880","<div class=""prompt"" style=""font-size:24px; margin-bottom:20px;"">Which word describes you more?</div>","1","pairing","9","reject","champion","PosNeg","2","73","negative","positive","71","champion","right","true"
"html-keyboard-response","20","62326","0.0-2.0-0.9","1013","29","pre","10","afternoon","2026-02-05","2026-02-17","2026-02-15T00:57:20.314Z","Mozilla/5.0 (iPhone; CPU iPhone OS 18_1_1 like Mac OS X) AppleWebKit/605.1.15 (KHTML, like Gecko) Mobile/15E148","358","632","480","","null","<div style=""font-size:60px;"">+</div>","null","fixation","","","","","","","","","","","",""
"html-button-response","21","64309","0.0-2.0-1.9","1013","29","pre","10","afternoon","2026-02-05","2026-02-17","2026-02-15T00:57:20.314Z","Mozilla/5.0 (iPhone; CPU iPhone OS 18_1_1 like Mac OS X) AppleWebKit/605.1.15 (KHTML, like Gecko) Mobile/15E148","358","632","480","","1980","<div class=""prompt"" style=""font-size:24px; margin-bottom:20px;"">Which word describes you more?</div>","0","pairing","10","pleased","vengeful","PosNeg","21","61","positive","negative","40","pleased","left","true"
"html-keyboard-response","22","65111","0.0-2.0-0.10","1013","29","pre","10","afternoon","2026-02-05","2026-02-17","2026-02-15T00:57:20.314Z","Mozilla/5.0 (iPhone; CPU iPhone OS 18_1_1 like Mac OS X) AppleWebKit/605.1.15 (KHTML, like Gecko) Mobile/15E148","358","632","480","","null","<div style=""font-size:60px;"">+</div>","null","fixation","","","","","","","","","","","",""
"html-button-response","23","67728","0.0-2.0-1.10","1013","29","pre","10","afternoon","2026-02-05","2026-02-17","2026-02-15T00:57:20.314Z","Mozilla/5.0 (iPhone; CPU iPhone OS 18_1_1 like Mac OS X) AppleWebKit/605.1.15 (KHTML, like Gecko) Mobile/15E148","358","632","480","","2614","<div class=""prompt"" style=""font-size:24px; margin-bottom:20px;"">Which word describes you more?</div>","1","pairing","11","lunatic","charitable","PosNeg","63","76","negative","positive","13","charitable","right","true"
"html-keyboard-response","24","68531","0.0-2.0-0.11","1013","29","pre","10","afternoon","2026-02-05","2026-02-17","2026-02-15T00:57:20.314Z","Mozilla/5.0 (iPhone; CPU iPhone OS 18_1_1 like Mac OS X) AppleWebKit/605.1.15 (KHTML, like Gecko) Mobile/15E148","358","632","480","","null","<div style=""font-size:60px;"">+</div>","null","fixation","","","","","","","","","","","",""
"html-button-response","25","71615","0.0-2.0-1.11","1013","29","pre","10","afternoon","2026-02-05","2026-02-17","2026-02-15T00:57:20.314Z","Mozilla/5.0 (iPhone; CPU iPhone OS 18_1_1 like Mac OS X) AppleWebKit/605.1.15 (KHTML, like Gecko) Mobile/15E148","358","632","480","","3081","<div class=""prompt"" style=""font-size:24px; margin-bottom:20px;"">Which word describes you more?</div>","0","pairing","12","enjoyable","winner","PosPos","83","8","positive","positive","75","enjoyable","left","true"
"html-keyboard-response","26","72419","0.0-2.0-0.12","1013","29","pre","10","afternoon","2026-02-05","2026-02-17","2026-02-15T00:57:20.314Z","Mozilla/5.0 (iPhone; CPU iPhone OS 18_1_1 like Mac OS X) AppleWebKit/605.1.15 (KHTML, like Gecko) Mobile/15E148","358","632","480","","null","<div style=""font-size:60px;"">+</div>","null","fixation","","","","","","","","","","","",""
"html-button-response","27","74902","0.0-2.0-1.12","1013","29","pre","10","afternoon","2026-02-05","2026-02-17","2026-02-15T00:57:20.314Z","Mozilla/5.0 (iPhone; CPU iPhone OS 18_1_1 like Mac OS X) AppleWebKit/605.1.15 (KHTML, like Gecko) Mobile/15E148","358","632","480","","2480","<div class=""prompt"" style=""font-size:24px; margin-bottom:20px;"">Which word describes you more?</div>","0","pairing","13","humorous","decisive","PosPos","75","76","positive","positive","1","humorous","left","true"
"html-keyboard-response","28","75705","0.0-2.0-0.13","1013","29","pre","10","afternoon","2026-02-05","2026-02-17","2026-02-15T00:57:20.314Z","Mozilla/5.0 (iPhone; CPU iPhone OS 18_1_1 like Mac OS X) AppleWebKit/605.1.15 (KHTML, like Gecko) Mobile/15E148","358","632","480","","null","<div style=""font-size:60px;"">+</div>","null","fixation","","","","","","","","","","","",""
"html-button-response","29","77772","0.0-2.0-1.13","1013","29","pre","10","afternoon","2026-02-05","2026-02-17","2026-02-15T00:57:20.314Z","Mozilla/5.0 (iPhone; CPU iPhone OS 18_1_1 like Mac OS X) AppleWebKit/605.1.15 (KHTML, like Gecko) Mobile/15E148","358","632","480","","2066","<div class=""prompt"" style=""font-size:24px; margin-bottom:20px;"">Which word describes you more?</div>","1","pairing","14","quitter","fun","PosNeg","17","71","negative","positive","54","fun","right","true"
"html-keyboard-response","30","78575","0.0-2.0-0.14","1013","29","pre","10","afternoon","2026-02-05","2026-02-17","2026-02-15T00:57:20.314Z","Mozilla/5.0 (iPhone; CPU iPhone OS 18_1_1 like Mac OS X) AppleWebKit/605.1.15 (KHTML, like Gecko) Mobile/15E148","358","632","480","","null","<div style=""font-size:60px;"">+</div>","null","fixation","","","","","","","","","","","",""
"html-button-response","31","80775","0.0-2.0-1.14","1013","29","pre","10","afternoon","2026-02-05","2026-02-17","2026-02-15T00:57:20.314Z","Mozilla/5.0 (iPhone; CPU iPhone OS 18_1_1 like Mac OS X) AppleWebKit/605.1.15 (KHTML, like Gecko) Mobile/15E148","358","632","480","","2197","<div class=""prompt"" style=""font-size:24px; margin-bottom:20px;"">Which word describes you more?</div>","0","pairing","15","anxious","annoying","NegNeg","59","10","negative","negative","49","anxious","left","true"
"html-keyboard-response","32","81578","0.0-2.0-0.15","1013","29","pre","10","afternoon","2026-02-05","2026-02-17","2026-02-15T00:57:20.314Z","Mozilla/5.0 (iPhone; CPU iPhone OS 18_1_1 like Mac OS X) AppleWebKit/605.1.15 (KHTML, like Gecko) Mobile/15E148","358","632","480","","null","<div style=""font-size:60px;"">+</div>","null","fixation","","","","","","","","","","","",""
"html-button-response","33","83612","0.0-2.0-1.15","1013","29","pre","10","afternoon","2026-02-05","2026-02-17","2026-02-15T00:57:20.314Z","Mozilla/5.0 (iPhone; CPU iPhone OS 18_1_1 like Mac OS X) AppleWebKit/605.1.15 (KHTML, like Gecko) Mobile/15E148","358","632","480","","2032","<div class=""prompt"" style=""font-size:24px; margin-bottom:20px;"">Which word describes you more?</div>","0","pairing","16","unbearable","disappointment","NegNeg","20","5","negative","negative","15","unbearable","left","true"
"html-keyboard-response","34","84415","0.0-2.0-0.16","1013","29","pre","10","afternoon","2026-02-05","2026-02-17","2026-02-15T00:57:20.314Z","Mozilla/5.0 (iPhone; CPU iPhone OS 18_1_1 like Mac OS X) AppleWebKit/605.1.15 (KHTML, like Gecko) Mobile/15E148","358","632","480","","null","<div style=""font-size:60px;"">+</div>","null","fixation","","","","","","","","","","","",""
"html-button-response","35","88818","0.0-2.0-1.16","1013","29","pre","10","afternoon","2026-02-05","2026-02-17","2026-02-15T00:57:20.314Z","Mozilla/5.0 (iPhone; CPU iPhone OS 18_1_1 like Mac OS X) AppleWebKit/605.1.15 (KHTML, like Gecko) Mobile/15E148","358","632","480","","4400","<div class=""prompt"" style=""font-size:24px; margin-bottom:20px;"">Which word describes you more?</div>","0","pairing","17","hesitant","sensible","PosNeg","66","60","negative","positive","6","hesitant","left","true"
"html-keyboard-response","36","89621","0.0-2.0-0.17","1013","29","pre","10","afternoon","2026-02-05","2026-02-17","2026-02-15T00:57:20.314Z","Mozilla/5.0 (iPhone; CPU iPhone OS 18_1_1 like Mac OS X) AppleWebKit/605.1.15 (KHTML, like Gecko) Mobile/15E148","358","632","480","","null","<div style=""font-size:60px;"">+</div>","null","fixation","","","","","","","","","","","",""
"html-button-response","37","91520","0.0-2.0-1.17","1013","29","pre","10","afternoon","2026-02-05","2026-02-17","2026-02-15T00:57:20.314Z","Mozilla/5.0 (iPhone; CPU iPhone OS 18_1_1 like Mac OS X) AppleWebKit/605.1.15 (KHTML, like Gecko) Mobile/15E148","358","632","480","","1897","<div class=""prompt"" style=""font-size:24px; margin-bottom:20px;"">Which word describes you more?</div>","1","pairing","18","hater","graceful","PosNeg","51","10","negative","positive","41","graceful","right","true"
"html-keyboard-response","38","92323","0.0-2.0-0.18","1013","29","pre","10","afternoon","2026-02-05","2026-02-17","2026-02-15T00:57:20.314Z","Mozilla/5.0 (iPhone; CPU iPhone OS 18_1_1 like Mac OS X) AppleWebKit/605.1.15 (KHTML, like Gecko) Mobile/15E148","358","632","480","","null","<div style=""font-size:60px;"">+</div>","null","fixation","","","","","","","","","","","",""
"html-button-response","39","95255","0.0-2.0-1.18","1013","29","pre","10","afternoon","2026-02-05","2026-02-17","2026-02-15T00:57:20.314Z","Mozilla/5.0 (iPhone; CPU iPhone OS 18_1_1 like Mac OS X) AppleWebKit/605.1.15 (KHTML, like Gecko) Mobile/15E148","358","632","480","","2929","<div class=""prompt"" style=""font-size:24px; margin-bottom:20px;"">Which word describes you more?</div>","1","pairing","19","disastrous","quitter","NegNeg","0","17","negative","negative","17","quitter","right","true"
"html-keyboard-response","40","96057","0.0-2.0-0.19","1013","29","pre","10","afternoon","2026-02-05","2026-02-17","2026-02-15T00:57:20.314Z","Mozilla/5.0 (iPhone; CPU iPhone OS 18_1_1 like Mac OS X) AppleWebKit/605.1.15 (KHTML, like Gecko) Mobile/15E148","358","632","480","","null","<div style=""font-size:60px;"">+</div>","null","fixation","","","","","","","","","","","",""
"html-button-response","41","98507","0.0-2.0-1.19","1013","29","pre","10","afternoon","2026-02-05","2026-02-17","2026-02-15T00:57:20.314Z","Mozilla/5.0 (iPhone; CPU iPhone OS 18_1_1 like Mac OS X) AppleWebKit/605.1.15 (KHTML, like Gecko) Mobile/15E148","358","632","480","","2447","<div class=""prompt"" style=""font-size:24px; margin-bottom:20px;"">Which word describes you more?</div>","1","pairing","20","peaceful","courteous","PosPos","12","92","positive","positive","80","courteous","right","true"
"html-keyboard-response","42","99310","0.0-2.0-0.20","1013","29","pre","10","afternoon","2026-02-05","2026-02-17","2026-02-15T00:57:20.314Z","Mozilla/5.0 (iPhone; CPU iPhone OS 18_1_1 like Mac OS X) AppleWebKit/605.1.15 (KHTML, like Gecko) Mobile/15E148","358","632","480","","null","<div style=""font-size:60px;"">+</div>","null","fixation","","","","","","","","","","","",""
"html-button-response","43","101157","0.0-2.0-1.20","1013","29","pre","10","afternoon","2026-02-05","2026-02-17","2026-02-15T00:57:20.314Z","Mozilla/5.0 (iPhone; CPU iPhone OS 18_1_1 like Mac OS X) AppleWebKit/605.1.15 (KHTML, like Gecko) Mobile/15E148","358","632","480","","1844","<div class=""prompt"" style=""font-size:24px; margin-bottom:20px;"">Which word describes you more?</div>","0","pairing","21","cynic","winner","PosNeg","75","8","negative","positive","67","cynic","left","true"
"html-keyboard-response","44","101959","0.0-2.0-0.21","1013","29","pre","10","afternoon","2026-02-05","2026-02-17","2026-02-15T00:57:20.314Z","Mozilla/5.0 (iPhone; CPU iPhone OS 18_1_1 like Mac OS X) AppleWebKit/605.1.15 (KHTML, like Gecko) Mobile/15E148","358","632","480","","null","<div style=""font-size:60px;"">+</div>","null","fixation","","","","","","","","","","","",""
"html-button-response","45","105569","0.0-2.0-1.21","1013","29","pre","10","afternoon","2026-02-05","2026-02-17","2026-02-15T00:57:20.314Z","Mozilla/5.0 (iPhone; CPU iPhone OS 18_1_1 like Mac OS X) AppleWebKit/605.1.15 (KHTML, like Gecko) Mobile/15E148","358","632","480","","3607","<div class=""prompt"" style=""font-size:24px; margin-bottom:20px;"">Which word describes you more?</div>","1","pairing","22","lucky","irritating","PosNeg","67","12","positive","negative","55","irritating","right","true"
"html-keyboard-response","46","106372","0.0-2.0-0.22","1013","29","pre","10","afternoon","2026-02-05","2026-02-17","2026-02-15T00:57:20.314Z","Mozilla/5.0 (iPhone; CPU iPhone OS 18_1_1 like Mac OS X) AppleWebKit/605.1.15 (KHTML, like Gecko) Mobile/15E148","358","632","480","","null","<div style=""font-size:60px;"">+</div>","null","fixation","","","","","","","","","","","",""
"html-button-response","47","109622","0.0-2.0-1.22","1013","29","pre","10","afternoon","2026-02-05","2026-02-17","2026-02-15T00:57:20.314Z","Mozilla/5.0 (iPhone; CPU iPhone OS 18_1_1 like Mac OS X) AppleWebKit/605.1.15 (KHTML, like Gecko) Mobile/15E148","358","632","480","","3245","<div class=""prompt"" style=""font-size:24px; margin-bottom:20px;"">Which word describes you more?</div>","1","pairing","23","graceful","companion","PosPos","10","74","positive","positive","64","companion","right","true"
"html-keyboard-response","48","110424","0.0-2.0-0.23","1013","29","pre","10","afternoon","2026-02-05","2026-02-17","2026-02-15T00:57:20.314Z","Mozilla/5.0 (iPhone; CPU iPhone OS 18_1_1 like Mac OS X) AppleWebKit/605.1.15 (KHTML, like Gecko) Mobile/15E148","358","632","480","","null","<div style=""font-size:60px;"">+</div>","null","fixation","","","","","","","","","","","",""
"html-button-response","49","113141","0.0-2.0-1.23","1013","29","pre","10","afternoon","2026-02-05","2026-02-17","2026-02-15T00:57:20.314Z","Mozilla/5.0 (iPhone; CPU iPhone OS 18_1_1 like Mac OS X) AppleWebKit/605.1.15 (KHTML, like Gecko) Mobile/15E148","358","632","480","","2715","<div class=""prompt"" style=""font-size:24px; margin-bottom:20px;"">Which word describes you more?</div>","0","pairing","24","sophisticated","awkward","PosNeg","70","50","positive","negative","20","sophisticated","left","true"
"instructions","50","114677","0.0-3.0","1013","29","pre","10","afternoon","2026-02-05","2026-02-17","2026-02-15T00:57:20.314Z","Mozilla/5.0 (iPhone; CPU iPhone OS 18_1_1 like Mac OS X) AppleWebKit/605.1.15 (KHTML, like Gecko) Mobile/15E148","358","632","480","[{""page_index"":0,""viewing_time"":1533}]","1533","","","","","","","","","","","","","","",""
