"trial_type","trial_index","time_elapsed","internal_node_id","PUNS_ID","session_number","session_phase","session_day","session_slot","ema_start_date","ema_post_start_date","experiment_start","browser","screen_width","screen_height","timezone_offset","view_history","rt","stimulus","response","which_experiment_phase","trial_number","left_word","right_word","valence","left_base_rating","right_base_rating","left_valence","right_valence","abs_diff","participant_response","chosen_side","valid_response"
"pavlovia","0","1928","0.0-0.0","1103","45","post","5","evening","2026-05-27","2026-06-08","2026-06-12T22:09:01.948Z","Mozilla/5.0 (iPhone; CPU iPhone OS 18_7 like Mac OS X) AppleWebKit/605.1.15 (KHTML, like Gecko) Mobile/15E148","358","632","240","","","","","","","","","","","","","","","","",""
"instructions","1","13370","0.0-1.0","1103","45","post","5","evening","2026-05-27","2026-06-08","2026-06-12T22:09:01.948Z","Mozilla/5.0 (iPhone; CPU iPhone OS 18_7 like Mac OS X) AppleWebKit/605.1.15 (KHTML, like Gecko) Mobile/15E148","358","632","240","[{""page_index"":0,""viewing_time"":4349},{""page_index"":1,""viewing_time"":1156},{""page_index"":2,""viewing_time"":2221},{""page_index"":3,""viewing_time"":3710}]","11439","","","","","","","","","","","","","","",""
"html-keyboard-response","2","14174","0.0-2.0-0.0","1103","45","post","5","evening","2026-05-27","2026-06-08","2026-06-12T22:09:01.948Z","Mozilla/5.0 (iPhone; CPU iPhone OS 18_7 like Mac OS X) AppleWebKit/605.1.15 (KHTML, like Gecko) Mobile/15E148","358","632","240","","null","<div style=""font-size:60px;"">+</div>","null","fixation","","","","","","","","","","","",""
"html-button-response","3","17083","0.0-2.0-1.0","1103","45","post","5","evening","2026-05-27","2026-06-08","2026-06-12T22:09:01.948Z","Mozilla/5.0 (iPhone; CPU iPhone OS 18_7 like Mac OS X) AppleWebKit/605.1.15 (KHTML, like Gecko) Mobile/15E148","358","632","240","","2904","<div class=""prompt"" style=""font-size:24px; margin-bottom:20px;"">Which word describes you more?</div>","1","pairing","1","satisfied","committed","PosPos","6","100","positive","positive","94","committed","right","true"
"html-keyboard-response","4","17886","0.0-2.0-0.1","1103","45","post","5","evening","2026-05-27","2026-06-08","2026-06-12T22:09:01.948Z","Mozilla/5.0 (iPhone; CPU iPhone OS 18_7 like Mac OS X) AppleWebKit/605.1.15 (KHTML, like Gecko) Mobile/15E148","358","632","240","","null","<div style=""font-size:60px;"">+</div>","null","fixation","","","","","","","","","","","",""
"html-button-response","5","20717","0.0-2.0-1.1","1103","45","post","5","evening","2026-05-27","2026-06-08","2026-06-12T22:09:01.948Z","Mozilla/5.0 (iPhone; CPU iPhone OS 18_7 like Mac OS X) AppleWebKit/605.1.15 (KHTML, like Gecko) Mobile/15E148","358","632","240","","2829","<div class=""prompt"" style=""font-size:24px; margin-bottom:20px;"">Which word describes you more?</div>","1","pairing","2","patient","jealous","PosNeg","6","18","positive","negative","12","jealous","right","true"
"html-keyboard-response","6","21520","0.0-2.0-0.2","1103","45","post","5","evening","2026-05-27","2026-06-08","2026-06-12T22:09:01.948Z","Mozilla/5.0 (iPhone; CPU iPhone OS 18_7 like Mac OS X) AppleWebKit/605.1.15 (KHTML, like Gecko) Mobile/15E148","358","632","240","","null","<div style=""font-size:60px;"">+</div>","null","fixation","","","","","","","","","","","",""
"html-button-response","7","23999","0.0-2.0-1.2","1103","45","post","5","evening","2026-05-27","2026-06-08","2026-06-12T22:09:01.948Z","Mozilla/5.0 (iPhone; CPU iPhone OS 18_7 like Mac OS X) AppleWebKit/605.1.15 (KHTML, like Gecko) Mobile/15E148","358","632","240","","2477","<div class=""prompt"" style=""font-size:24px; margin-bottom:20px;"">Which word describes you more?</div>","1","pairing","3","bully","headache","NegNeg","0","5","negative","negative","5","headache","right","true"
"html-keyboard-response","8","24802","0.0-2.0-0.3","1103","45","post","5","evening","2026-05-27","2026-06-08","2026-06-12T22:09:01.948Z","Mozilla/5.0 (iPhone; CPU iPhone OS 18_7 like Mac OS X) AppleWebKit/605.1.15 (KHTML, like Gecko) Mobile/15E148","358","632","240","","null","<div style=""font-size:60px;"">+</div>","null","fixation","","","","","","","","","","","",""
"html-button-response","9","27176","0.0-2.0-1.3","1103","45","post","5","evening","2026-05-27","2026-06-08","2026-06-12T22:09:01.948Z","Mozilla/5.0 (iPhone; CPU iPhone OS 18_7 like Mac OS X) AppleWebKit/605.1.15 (KHTML, like Gecko) Mobile/15E148","358","632","240","","2371","<div class=""prompt"" style=""font-size:24px; margin-bottom:20px;"">Which word describes you more?</div>","0","pairing","4","successful","spontaneous","PosPos","93","100","positive","positive","7","successful","left","true"
"html-keyboard-response","10","27979","0.0-2.0-0.4","1103","45","post","5","evening","2026-05-27","2026-06-08","2026-06-12T22:09:01.948Z","Mozilla/5.0 (iPhone; CPU iPhone OS 18_7 like Mac OS X) AppleWebKit/605.1.15 (KHTML, like Gecko) Mobile/15E148","358","632","240","","null","<div style=""font-size:60px;"">+</div>","null","fixation","","","","","","","","","","","",""
"html-button-response","11","29710","0.0-2.0-1.4","1103","45","post","5","evening","2026-05-27","2026-06-08","2026-06-12T22:09:01.948Z","Mozilla/5.0 (iPhone; CPU iPhone OS 18_7 like Mac OS X) AppleWebKit/605.1.15 (KHTML, like Gecko) Mobile/15E148","358","632","240","","1729","<div class=""prompt"" style=""font-size:24px; margin-bottom:20px;"">Which word describes you more?</div>","0","pairing","5","satisfied","quitter","PosNeg","6","0","positive","negative","6","satisfied","left","true"
"html-keyboard-response","12","30513","0.0-2.0-0.5","1103","45","post","5","evening","2026-05-27","2026-06-08","2026-06-12T22:09:01.948Z","Mozilla/5.0 (iPhone; CPU iPhone OS 18_7 like Mac OS X) AppleWebKit/605.1.15 (KHTML, like Gecko) Mobile/15E148","358","632","240","","null","<div style=""font-size:60px;"">+</div>","null","fixation","","","","","","","","","","","",""
"html-button-response","13","31842","0.0-2.0-1.5","1103","45","post","5","evening","2026-05-27","2026-06-08","2026-06-12T22:09:01.948Z","Mozilla/5.0 (iPhone; CPU iPhone OS 18_7 like Mac OS X) AppleWebKit/605.1.15 (KHTML, like Gecko) Mobile/15E148","358","632","240","","1327","<div class=""prompt"" style=""font-size:24px; margin-bottom:20px;"">Which word describes you more?</div>","0","pairing","6","anxious","carefree","PosNeg","89","48","negative","positive","41","anxious","left","true"
"html-keyboard-response","14","32645","0.0-2.0-0.6","1103","45","post","5","evening","2026-05-27","2026-06-08","2026-06-12T22:09:01.948Z","Mozilla/5.0 (iPhone; CPU iPhone OS 18_7 like Mac OS X) AppleWebKit/605.1.15 (KHTML, like Gecko) Mobile/15E148","358","632","240","","null","<div style=""font-size:60px;"">+</div>","null","fixation","","","","","","","","","","","",""
"html-button-response","15","34600","0.0-2.0-1.6","1103","45","post","5","evening","2026-05-27","2026-06-08","2026-06-12T22:09:01.948Z","Mozilla/5.0 (iPhone; CPU iPhone OS 18_7 like Mac OS X) AppleWebKit/605.1.15 (KHTML, like Gecko) Mobile/15E148","358","632","240","","1953","<div class=""prompt"" style=""font-size:24px; margin-bottom:20px;"">Which word describes you more?</div>","1","pairing","7","flawless","heartbroken","PosNeg","3","39","positive","negative","36","heartbroken","right","true"
"html-keyboard-response","16","35403","0.0-2.0-0.7","1103","45","post","5","evening","2026-05-27","2026-06-08","2026-06-12T22:09:01.948Z","Mozilla/5.0 (iPhone; CPU iPhone OS 18_7 like Mac OS X) AppleWebKit/605.1.15 (KHTML, like Gecko) Mobile/15E148","358","632","240","","null","<div style=""font-size:60px;"">+</div>","null","fixation","","","","","","","","","","","",""
"html-button-response","17","37942","0.0-2.0-1.7","1103","45","post","5","evening","2026-05-27","2026-06-08","2026-06-12T22:09:01.948Z","Mozilla/5.0 (iPhone; CPU iPhone OS 18_7 like Mac OS X) AppleWebKit/605.1.15 (KHTML, like Gecko) Mobile/15E148","358","632","240","","2536","<div class=""prompt"" style=""font-size:24px; margin-bottom:20px;"">Which word describes you more?</div>","0","pairing","8","lovable","alluring","PosPos","100","91","positive","positive","9","lovable","left","true"
"html-keyboard-response","18","38745","0.0-2.0-0.8","1103","45","post","5","evening","2026-05-27","2026-06-08","2026-06-12T22:09:01.948Z","Mozilla/5.0 (iPhone; CPU iPhone OS 18_7 like Mac OS X) AppleWebKit/605.1.15 (KHTML, like Gecko) Mobile/15E148","358","632","240","","null","<div style=""font-size:60px;"">+</div>","null","fixation","","","","","","","","","","","",""
"html-button-response","19","40406","0.0-2.0-1.8","1103","45","post","5","evening","2026-05-27","2026-06-08","2026-06-12T22:09:01.948Z","Mozilla/5.0 (iPhone; CPU iPhone OS 18_7 like Mac OS X) AppleWebKit/605.1.15 (KHTML, like Gecko) Mobile/15E148","358","632","240","","1659","<div class=""prompt"" style=""font-size:24px; margin-bottom:20px;"">Which word describes you more?</div>","0","pairing","9","alone","unbearable","NegNeg","6","0","negative","negative","6","alone","left","true"
"html-keyboard-response","20","41208","0.0-2.0-0.9","1103","45","post","5","evening","2026-05-27","2026-06-08","2026-06-12T22:09:01.948Z","Mozilla/5.0 (iPhone; CPU iPhone OS 18_7 like Mac OS X) AppleWebKit/605.1.15 (KHTML, like Gecko) Mobile/15E148","358","632","240","","null","<div style=""font-size:60px;"">+</div>","null","fixation","","","","","","","","","","","",""
"html-button-response","21","45686","0.0-2.0-1.9","1103","45","post","5","evening","2026-05-27","2026-06-08","2026-06-12T22:09:01.948Z","Mozilla/5.0 (iPhone; CPU iPhone OS 18_7 like Mac OS X) AppleWebKit/605.1.15 (KHTML, like Gecko) Mobile/15E148","358","632","240","","4475","<div class=""prompt"" style=""font-size:24px; margin-bottom:20px;"">Which word describes you more?</div>","0","pairing","10","insecure","worthless","NegNeg","39","1","negative","negative","38","insecure","left","true"
"html-keyboard-response","22","46489","0.0-2.0-0.10","1103","45","post","5","evening","2026-05-27","2026-06-08","2026-06-12T22:09:01.948Z","Mozilla/5.0 (iPhone; CPU iPhone OS 18_7 like Mac OS X) AppleWebKit/605.1.15 (KHTML, like Gecko) Mobile/15E148","358","632","240","","null","<div style=""font-size:60px;"">+</div>","null","fixation","","","","","","","","","","","",""
"html-button-response","23","48011","0.0-2.0-1.10","1103","45","post","5","evening","2026-05-27","2026-06-08","2026-06-12T22:09:01.948Z","Mozilla/5.0 (iPhone; CPU iPhone OS 18_7 like Mac OS X) AppleWebKit/605.1.15 (KHTML, like Gecko) Mobile/15E148","358","632","240","","1519","<div class=""prompt"" style=""font-size:24px; margin-bottom:20px;"">Which word describes you more?</div>","1","pairing","11","awful","resourceful","PosNeg","0","100","negative","positive","100","resourceful","right","true"
"html-keyboard-response","24","48813","0.0-2.0-0.11","1103","45","post","5","evening","2026-05-27","2026-06-08","2026-06-12T22:09:01.948Z","Mozilla/5.0 (iPhone; CPU iPhone OS 18_7 like Mac OS X) AppleWebKit/605.1.15 (KHTML, like Gecko) Mobile/15E148","358","632","240","","null","<div style=""font-size:60px;"">+</div>","null","fixation","","","","","","","","","","","",""
"html-button-response","25","50545","0.0-2.0-1.11","1103","45","post","5","evening","2026-05-27","2026-06-08","2026-06-12T22:09:01.948Z","Mozilla/5.0 (iPhone; CPU iPhone OS 18_7 like Mac OS X) AppleWebKit/605.1.15 (KHTML, like Gecko) Mobile/15E148","358","632","240","","1730","<div class=""prompt"" style=""font-size:24px; margin-bottom:20px;"">Which word describes you more?</div>","0","pairing","12","companion","insecure","PosNeg","100","39","positive","negative","61","companion","left","true"
"html-keyboard-response","26","51348","0.0-2.0-0.12","1103","45","post","5","evening","2026-05-27","2026-06-08","2026-06-12T22:09:01.948Z","Mozilla/5.0 (iPhone; CPU iPhone OS 18_7 like Mac OS X) AppleWebKit/605.1.15 (KHTML, like Gecko) Mobile/15E148","358","632","240","","null","<div style=""font-size:60px;"">+</div>","null","fixation","","","","","","","","","","","",""
"html-button-response","27","52875","0.0-2.0-1.12","1103","45","post","5","evening","2026-05-27","2026-06-08","2026-06-12T22:09:01.948Z","Mozilla/5.0 (iPhone; CPU iPhone OS 18_7 like Mac OS X) AppleWebKit/605.1.15 (KHTML, like Gecko) Mobile/15E148","358","632","240","","1524","<div class=""prompt"" style=""font-size:24px; margin-bottom:20px;"">Which word describes you more?</div>","0","pairing","13","asset","patient","PosPos","86","6","positive","positive","80","asset","left","true"
"html-keyboard-response","28","53677","0.0-2.0-0.13","1103","45","post","5","evening","2026-05-27","2026-06-08","2026-06-12T22:09:01.948Z","Mozilla/5.0 (iPhone; CPU iPhone OS 18_7 like Mac OS X) AppleWebKit/605.1.15 (KHTML, like Gecko) Mobile/15E148","358","632","240","","null","<div style=""font-size:60px;"">+</div>","null","fixation","","","","","","","","","","","",""
"html-button-response","29","55268","0.0-2.0-1.13","1103","45","post","5","evening","2026-05-27","2026-06-08","2026-06-12T22:09:01.948Z","Mozilla/5.0 (iPhone; CPU iPhone OS 18_7 like Mac OS X) AppleWebKit/605.1.15 (KHTML, like Gecko) Mobile/15E148","358","632","240","","1588","<div class=""prompt"" style=""font-size:24px; margin-bottom:20px;"">Which word describes you more?</div>","0","pairing","14","cooperative","defective","PosNeg","94","10","positive","negative","84","cooperative","left","true"
"html-keyboard-response","30","56071","0.0-2.0-0.14","1103","45","post","5","evening","2026-05-27","2026-06-08","2026-06-12T22:09:01.948Z","Mozilla/5.0 (iPhone; CPU iPhone OS 18_7 like Mac OS X) AppleWebKit/605.1.15 (KHTML, like Gecko) Mobile/15E148","358","632","240","","null","<div style=""font-size:60px;"">+</div>","null","fixation","","","","","","","","","","","",""
"html-button-response","31","57646","0.0-2.0-1.14","1103","45","post","5","evening","2026-05-27","2026-06-08","2026-06-12T22:09:01.948Z","Mozilla/5.0 (iPhone; CPU iPhone OS 18_7 like Mac OS X) AppleWebKit/605.1.15 (KHTML, like Gecko) Mobile/15E148","358","632","240","","1573","<div class=""prompt"" style=""font-size:24px; margin-bottom:20px;"">Which word describes you more?</div>","1","pairing","15","irresponsible","stingy","NegNeg","0","85","negative","negative","85","stingy","right","true"
"html-keyboard-response","32","58449","0.0-2.0-0.15","1103","45","post","5","evening","2026-05-27","2026-06-08","2026-06-12T22:09:01.948Z","Mozilla/5.0 (iPhone; CPU iPhone OS 18_7 like Mac OS X) AppleWebKit/605.1.15 (KHTML, like Gecko) Mobile/15E148","358","632","240","","null","<div style=""font-size:60px;"">+</div>","null","fixation","","","","","","","","","","","",""
"html-button-response","33","60029","0.0-2.0-1.15","1103","45","post","5","evening","2026-05-27","2026-06-08","2026-06-12T22:09:01.948Z","Mozilla/5.0 (iPhone; CPU iPhone OS 18_7 like Mac OS X) AppleWebKit/605.1.15 (KHTML, like Gecko) Mobile/15E148","358","632","240","","1578","<div class=""prompt"" style=""font-size:24px; margin-bottom:20px;"">Which word describes you more?</div>","0","pairing","16","anxious","safe","PosNeg","89","70","negative","positive","19","anxious","left","true"
"html-keyboard-response","34","60832","0.0-2.0-0.16","1103","45","post","5","evening","2026-05-27","2026-06-08","2026-06-12T22:09:01.948Z","Mozilla/5.0 (iPhone; CPU iPhone OS 18_7 like Mac OS X) AppleWebKit/605.1.15 (KHTML, like Gecko) Mobile/15E148","358","632","240","","null","<div style=""font-size:60px;"">+</div>","null","fixation","","","","","","","","","","","",""
"html-button-response","35","63104","0.0-2.0-1.16","1103","45","post","5","evening","2026-05-27","2026-06-08","2026-06-12T22:09:01.948Z","Mozilla/5.0 (iPhone; CPU iPhone OS 18_7 like Mac OS X) AppleWebKit/605.1.15 (KHTML, like Gecko) Mobile/15E148","358","632","240","","2270","<div class=""prompt"" style=""font-size:24px; margin-bottom:20px;"">Which word describes you more?</div>","1","pairing","17","regretful","attractive","PosNeg","24","76","negative","positive","52","attractive","right","true"
"html-keyboard-response","36","63907","0.0-2.0-0.17","1103","45","post","5","evening","2026-05-27","2026-06-08","2026-06-12T22:09:01.948Z","Mozilla/5.0 (iPhone; CPU iPhone OS 18_7 like Mac OS X) AppleWebKit/605.1.15 (KHTML, like Gecko) Mobile/15E148","358","632","240","","null","<div style=""font-size:60px;"">+</div>","null","fixation","","","","","","","","","","","",""
"html-button-response","37","65227","0.0-2.0-1.17","1103","45","post","5","evening","2026-05-27","2026-06-08","2026-06-12T22:09:01.948Z","Mozilla/5.0 (iPhone; CPU iPhone OS 18_7 like Mac OS X) AppleWebKit/605.1.15 (KHTML, like Gecko) Mobile/15E148","358","632","240","","1317","<div class=""prompt"" style=""font-size:24px; margin-bottom:20px;"">Which word describes you more?</div>","1","pairing","18","satisfied","stingy","PosNeg","6","85","positive","negative","79","stingy","right","true"
"html-keyboard-response","38","66029","0.0-2.0-0.18","1103","45","post","5","evening","2026-05-27","2026-06-08","2026-06-12T22:09:01.948Z","Mozilla/5.0 (iPhone; CPU iPhone OS 18_7 like Mac OS X) AppleWebKit/605.1.15 (KHTML, like Gecko) Mobile/15E148","358","632","240","","null","<div style=""font-size:60px;"">+</div>","null","fixation","","","","","","","","","","","",""
"html-button-response","39","68353","0.0-2.0-1.18","1103","45","post","5","evening","2026-05-27","2026-06-08","2026-06-12T22:09:01.948Z","Mozilla/5.0 (iPhone; CPU iPhone OS 18_7 like Mac OS X) AppleWebKit/605.1.15 (KHTML, like Gecko) Mobile/15E148","358","632","240","","2320","<div class=""prompt"" style=""font-size:24px; margin-bottom:20px;"">Which word describes you more?</div>","0","pairing","19","smart","graceful","PosPos","100","48","positive","positive","52","smart","left","true"
"html-keyboard-response","40","69155","0.0-2.0-0.19","1103","45","post","5","evening","2026-05-27","2026-06-08","2026-06-12T22:09:01.948Z","Mozilla/5.0 (iPhone; CPU iPhone OS 18_7 like Mac OS X) AppleWebKit/605.1.15 (KHTML, like Gecko) Mobile/15E148","358","632","240","","null","<div style=""font-size:60px;"">+</div>","null","fixation","","","","","","","","","","","",""
"html-button-response","41","70227","0.0-2.0-1.19","1103","45","post","5","evening","2026-05-27","2026-06-08","2026-06-12T22:09:01.948Z","Mozilla/5.0 (iPhone; CPU iPhone OS 18_7 like Mac OS X) AppleWebKit/605.1.15 (KHTML, like Gecko) Mobile/15E148","358","632","240","","1070","<div class=""prompt"" style=""font-size:24px; margin-bottom:20px;"">Which word describes you more?</div>","1","pairing","20","malicious","selfish","NegNeg","0","43","negative","negative","43","selfish","right","true"
"html-keyboard-response","42","71030","0.0-2.0-0.20","1103","45","post","5","evening","2026-05-27","2026-06-08","2026-06-12T22:09:01.948Z","Mozilla/5.0 (iPhone; CPU iPhone OS 18_7 like Mac OS X) AppleWebKit/605.1.15 (KHTML, like Gecko) Mobile/15E148","358","632","240","","null","<div style=""font-size:60px;"">+</div>","null","fixation","","","","","","","","","","","",""
"html-button-response","43","73947","0.0-2.0-1.20","1103","45","post","5","evening","2026-05-27","2026-06-08","2026-06-12T22:09:01.948Z","Mozilla/5.0 (iPhone; CPU iPhone OS 18_7 like Mac OS X) AppleWebKit/605.1.15 (KHTML, like Gecko) Mobile/15E148","358","632","240","","2915","<div class=""prompt"" style=""font-size:24px; margin-bottom:20px;"">Which word describes you more?</div>","1","pairing","21","graceful","courteous","PosPos","48","89","positive","positive","41","courteous","right","true"
"html-keyboard-response","44","74750","0.0-2.0-0.21","1103","45","post","5","evening","2026-05-27","2026-06-08","2026-06-12T22:09:01.948Z","Mozilla/5.0 (iPhone; CPU iPhone OS 18_7 like Mac OS X) AppleWebKit/605.1.15 (KHTML, like Gecko) Mobile/15E148","358","632","240","","null","<div style=""font-size:60px;"">+</div>","null","fixation","","","","","","","","","","","",""
"html-button-response","45","75930","0.0-2.0-1.21","1103","45","post","5","evening","2026-05-27","2026-06-08","2026-06-12T22:09:01.948Z","Mozilla/5.0 (iPhone; CPU iPhone OS 18_7 like Mac OS X) AppleWebKit/605.1.15 (KHTML, like Gecko) Mobile/15E148","358","632","240","","1178","<div class=""prompt"" style=""font-size:24px; margin-bottom:20px;"">Which word describes you more?</div>","1","pairing","22","pest","patient","PosNeg","1","6","negative","positive","5","patient","right","true"
"html-keyboard-response","46","76733","0.0-2.0-0.22","1103","45","post","5","evening","2026-05-27","2026-06-08","2026-06-12T22:09:01.948Z","Mozilla/5.0 (iPhone; CPU iPhone OS 18_7 like Mac OS X) AppleWebKit/605.1.15 (KHTML, like Gecko) Mobile/15E148","358","632","240","","null","<div style=""font-size:60px;"">+</div>","null","fixation","","","","","","","","","","","",""
"html-button-response","47","77814","0.0-2.0-1.22","1103","45","post","5","evening","2026-05-27","2026-06-08","2026-06-12T22:09:01.948Z","Mozilla/5.0 (iPhone; CPU iPhone OS 18_7 like Mac OS X) AppleWebKit/605.1.15 (KHTML, like Gecko) Mobile/15E148","358","632","240","","1078","<div class=""prompt"" style=""font-size:24px; margin-bottom:20px;"">Which word describes you more?</div>","0","pairing","23","anxious","flawless","PosNeg","89","3","negative","positive","86","anxious","left","true"
"html-keyboard-response","48","78616","0.0-2.0-0.23","1103","45","post","5","evening","2026-05-27","2026-06-08","2026-06-12T22:09:01.948Z","Mozilla/5.0 (iPhone; CPU iPhone OS 18_7 like Mac OS X) AppleWebKit/605.1.15 (KHTML, like Gecko) Mobile/15E148","358","632","240","","null","<div style=""font-size:60px;"">+</div>","null","fixation","","","","","","","","","","","",""
"html-button-response","49","80764","0.0-2.0-1.23","1103","45","post","5","evening","2026-05-27","2026-06-08","2026-06-12T22:09:01.948Z","Mozilla/5.0 (iPhone; CPU iPhone OS 18_7 like Mac OS X) AppleWebKit/605.1.15 (KHTML, like Gecko) Mobile/15E148","358","632","240","","2146","<div class=""prompt"" style=""font-size:24px; margin-bottom:20px;"">Which word describes you more?</div>","0","pairing","24","stingy","burden","NegNeg","85","5","negative","negative","80","stingy","left","true"
"instructions","50","83139","0.0-3.0","1103","45","post","5","evening","2026-05-27","2026-06-08","2026-06-12T22:09:01.948Z","Mozilla/5.0 (iPhone; CPU iPhone OS 18_7 like Mac OS X) AppleWebKit/605.1.15 (KHTML, like Gecko) Mobile/15E148","358","632","240","[{""page_index"":0,""viewing_time"":2373}]","2373","","","","","","","","","","","","","","",""
