"trial_type","trial_index","time_elapsed","internal_node_id","PUNS_ID","session_number","session_phase","session_day","session_slot","ema_start_date","ema_post_start_date","experiment_start","browser","screen_width","screen_height","timezone_offset","view_history","rt","stimulus","response","which_experiment_phase","trial_number","left_word","right_word","valence","left_base_rating","right_base_rating","left_valence","right_valence","abs_diff","participant_response","chosen_side","valid_response"
"pavlovia","0","946","0.0-0.0","1015","39","post","3","evening","2026-04-07","2026-04-19","2026-04-22T03:51:14.087Z","Mozilla/5.0 (Linux; Android 14; Pixel 4a (5G) Build/UP1A.231105.001.B2; wv) AppleWebKit/537.36 (KHTML, like Gecko) Version/4.0 Chrome/147.0.7727.55 Mobile Safari/537.36","379","674","240","","","","","","","","","","","","","","","","",""
"instructions","1","3025","0.0-1.0","1015","39","post","3","evening","2026-04-07","2026-04-19","2026-04-22T03:51:14.087Z","Mozilla/5.0 (Linux; Android 14; Pixel 4a (5G) Build/UP1A.231105.001.B2; wv) AppleWebKit/537.36 (KHTML, like Gecko) Version/4.0 Chrome/147.0.7727.55 Mobile Safari/537.36","379","674","240","[{""page_index"":0,""viewing_time"":564},{""page_index"":1,""viewing_time"":479},{""page_index"":2,""viewing_time"":581},{""page_index"":3,""viewing_time"":452}]","2077","","","","","","","","","","","","","","",""
"html-keyboard-response","2","3829","0.0-2.0-0.0","1015","39","post","3","evening","2026-04-07","2026-04-19","2026-04-22T03:51:14.087Z","Mozilla/5.0 (Linux; Android 14; Pixel 4a (5G) Build/UP1A.231105.001.B2; wv) AppleWebKit/537.36 (KHTML, like Gecko) Version/4.0 Chrome/147.0.7727.55 Mobile Safari/537.36","379","674","240","","null","<div style=""font-size:60px;"">+</div>","null","fixation","","","","","","","","","","","",""
"html-button-response","3","4682","0.0-2.0-1.0","1015","39","post","3","evening","2026-04-07","2026-04-19","2026-04-22T03:51:14.087Z","Mozilla/5.0 (Linux; Android 14; Pixel 4a (5G) Build/UP1A.231105.001.B2; wv) AppleWebKit/537.36 (KHTML, like Gecko) Version/4.0 Chrome/147.0.7727.55 Mobile Safari/537.36","379","674","240","","849","<div class=""prompt"" style=""font-size:24px; margin-bottom:20px;"">Which word describes you more?</div>","1","pairing","1","heartbroken","smiley","PosNeg","0","100","negative","positive","100","smiley","right","true"
"html-keyboard-response","4","5486","0.0-2.0-0.1","1015","39","post","3","evening","2026-04-07","2026-04-19","2026-04-22T03:51:14.087Z","Mozilla/5.0 (Linux; Android 14; Pixel 4a (5G) Build/UP1A.231105.001.B2; wv) AppleWebKit/537.36 (KHTML, like Gecko) Version/4.0 Chrome/147.0.7727.55 Mobile Safari/537.36","379","674","240","","null","<div style=""font-size:60px;"">+</div>","null","fixation","","","","","","","","","","","",""
"html-button-response","5","6361","0.0-2.0-1.1","1015","39","post","3","evening","2026-04-07","2026-04-19","2026-04-22T03:51:14.087Z","Mozilla/5.0 (Linux; Android 14; Pixel 4a (5G) Build/UP1A.231105.001.B2; wv) AppleWebKit/537.36 (KHTML, like Gecko) Version/4.0 Chrome/147.0.7727.55 Mobile Safari/537.36","379","674","240","","870","<div class=""prompt"" style=""font-size:24px; margin-bottom:20px;"">Which word describes you more?</div>","0","pairing","2","clever","hopeful","PosPos","100","100","positive","positive","0","clever","left","true"
"html-keyboard-response","6","7163","0.0-2.0-0.2","1015","39","post","3","evening","2026-04-07","2026-04-19","2026-04-22T03:51:14.087Z","Mozilla/5.0 (Linux; Android 14; Pixel 4a (5G) Build/UP1A.231105.001.B2; wv) AppleWebKit/537.36 (KHTML, like Gecko) Version/4.0 Chrome/147.0.7727.55 Mobile Safari/537.36","379","674","240","","null","<div style=""font-size:60px;"">+</div>","null","fixation","","","","","","","","","","","",""
"html-button-response","7","8475","0.0-2.0-1.2","1015","39","post","3","evening","2026-04-07","2026-04-19","2026-04-22T03:51:14.087Z","Mozilla/5.0 (Linux; Android 14; Pixel 4a (5G) Build/UP1A.231105.001.B2; wv) AppleWebKit/537.36 (KHTML, like Gecko) Version/4.0 Chrome/147.0.7727.55 Mobile Safari/537.36","379","674","240","","1309","<div class=""prompt"" style=""font-size:24px; margin-bottom:20px;"">Which word describes you more?</div>","0","pairing","3","playful","cruel","PosNeg","100","0","positive","negative","100","playful","left","true"
"html-keyboard-response","8","9278","0.0-2.0-0.3","1015","39","post","3","evening","2026-04-07","2026-04-19","2026-04-22T03:51:14.087Z","Mozilla/5.0 (Linux; Android 14; Pixel 4a (5G) Build/UP1A.231105.001.B2; wv) AppleWebKit/537.36 (KHTML, like Gecko) Version/4.0 Chrome/147.0.7727.55 Mobile Safari/537.36","379","674","240","","null","<div style=""font-size:60px;"">+</div>","null","fixation","","","","","","","","","","","",""
"html-button-response","9","10718","0.0-2.0-1.3","1015","39","post","3","evening","2026-04-07","2026-04-19","2026-04-22T03:51:14.087Z","Mozilla/5.0 (Linux; Android 14; Pixel 4a (5G) Build/UP1A.231105.001.B2; wv) AppleWebKit/537.36 (KHTML, like Gecko) Version/4.0 Chrome/147.0.7727.55 Mobile Safari/537.36","379","674","240","","1437","<div class=""prompt"" style=""font-size:24px; margin-bottom:20px;"">Which word describes you more?</div>","1","pairing","4","blissful","outcast","PosNeg","73","100","positive","negative","27","outcast","right","true"
"html-keyboard-response","10","11520","0.0-2.0-0.4","1015","39","post","3","evening","2026-04-07","2026-04-19","2026-04-22T03:51:14.087Z","Mozilla/5.0 (Linux; Android 14; Pixel 4a (5G) Build/UP1A.231105.001.B2; wv) AppleWebKit/537.36 (KHTML, like Gecko) Version/4.0 Chrome/147.0.7727.55 Mobile Safari/537.36","379","674","240","","null","<div style=""font-size:60px;"">+</div>","null","fixation","","","","","","","","","","","",""
"html-button-response","11","12619","0.0-2.0-1.4","1015","39","post","3","evening","2026-04-07","2026-04-19","2026-04-22T03:51:14.087Z","Mozilla/5.0 (Linux; Android 14; Pixel 4a (5G) Build/UP1A.231105.001.B2; wv) AppleWebKit/537.36 (KHTML, like Gecko) Version/4.0 Chrome/147.0.7727.55 Mobile Safari/537.36","379","674","240","","1094","<div class=""prompt"" style=""font-size:24px; margin-bottom:20px;"">Which word describes you more?</div>","1","pairing","5","easygoing","witty","PosPos","48","100","positive","positive","52","witty","right","true"
"html-keyboard-response","12","13422","0.0-2.0-0.5","1015","39","post","3","evening","2026-04-07","2026-04-19","2026-04-22T03:51:14.087Z","Mozilla/5.0 (Linux; Android 14; Pixel 4a (5G) Build/UP1A.231105.001.B2; wv) AppleWebKit/537.36 (KHTML, like Gecko) Version/4.0 Chrome/147.0.7727.55 Mobile Safari/537.36","379","674","240","","null","<div style=""font-size:60px;"">+</div>","null","fixation","","","","","","","","","","","",""
"html-button-response","13","14203","0.0-2.0-1.5","1015","39","post","3","evening","2026-04-07","2026-04-19","2026-04-22T03:51:14.087Z","Mozilla/5.0 (Linux; Android 14; Pixel 4a (5G) Build/UP1A.231105.001.B2; wv) AppleWebKit/537.36 (KHTML, like Gecko) Version/4.0 Chrome/147.0.7727.55 Mobile Safari/537.36","379","674","240","","778","<div class=""prompt"" style=""font-size:24px; margin-bottom:20px;"">Which word describes you more?</div>","1","pairing","6","quitter","fun","PosNeg","0","100","negative","positive","100","fun","right","true"
"html-keyboard-response","14","15006","0.0-2.0-0.6","1015","39","post","3","evening","2026-04-07","2026-04-19","2026-04-22T03:51:14.087Z","Mozilla/5.0 (Linux; Android 14; Pixel 4a (5G) Build/UP1A.231105.001.B2; wv) AppleWebKit/537.36 (KHTML, like Gecko) Version/4.0 Chrome/147.0.7727.55 Mobile Safari/537.36","379","674","240","","null","<div style=""font-size:60px;"">+</div>","null","fixation","","","","","","","","","","","",""
"html-button-response","15","15990","0.0-2.0-1.6","1015","39","post","3","evening","2026-04-07","2026-04-19","2026-04-22T03:51:14.087Z","Mozilla/5.0 (Linux; Android 14; Pixel 4a (5G) Build/UP1A.231105.001.B2; wv) AppleWebKit/537.36 (KHTML, like Gecko) Version/4.0 Chrome/147.0.7727.55 Mobile Safari/537.36","379","674","240","","978","<div class=""prompt"" style=""font-size:24px; margin-bottom:20px;"">Which word describes you more?</div>","0","pairing","7","hopeful","failure","PosNeg","100","0","positive","negative","100","hopeful","left","true"
"html-keyboard-response","16","16792","0.0-2.0-0.7","1015","39","post","3","evening","2026-04-07","2026-04-19","2026-04-22T03:51:14.087Z","Mozilla/5.0 (Linux; Android 14; Pixel 4a (5G) Build/UP1A.231105.001.B2; wv) AppleWebKit/537.36 (KHTML, like Gecko) Version/4.0 Chrome/147.0.7727.55 Mobile Safari/537.36","379","674","240","","null","<div style=""font-size:60px;"">+</div>","null","fixation","","","","","","","","","","","",""
"html-button-response","17","17666","0.0-2.0-1.7","1015","39","post","3","evening","2026-04-07","2026-04-19","2026-04-22T03:51:14.087Z","Mozilla/5.0 (Linux; Android 14; Pixel 4a (5G) Build/UP1A.231105.001.B2; wv) AppleWebKit/537.36 (KHTML, like Gecko) Version/4.0 Chrome/147.0.7727.55 Mobile Safari/537.36","379","674","240","","869","<div class=""prompt"" style=""font-size:24px; margin-bottom:20px;"">Which word describes you more?</div>","0","pairing","8","expert","adorable","PosPos","100","74","positive","positive","26","expert","left","true"
"html-keyboard-response","18","18469","0.0-2.0-0.8","1015","39","post","3","evening","2026-04-07","2026-04-19","2026-04-22T03:51:14.087Z","Mozilla/5.0 (Linux; Android 14; Pixel 4a (5G) Build/UP1A.231105.001.B2; wv) AppleWebKit/537.36 (KHTML, like Gecko) Version/4.0 Chrome/147.0.7727.55 Mobile Safari/537.36","379","674","240","","null","<div style=""font-size:60px;"">+</div>","null","fixation","","","","","","","","","","","",""
"html-button-response","19","19519","0.0-2.0-1.8","1015","39","post","3","evening","2026-04-07","2026-04-19","2026-04-22T03:51:14.087Z","Mozilla/5.0 (Linux; Android 14; Pixel 4a (5G) Build/UP1A.231105.001.B2; wv) AppleWebKit/537.36 (KHTML, like Gecko) Version/4.0 Chrome/147.0.7727.55 Mobile Safari/537.36","379","674","240","","1047","<div class=""prompt"" style=""font-size:24px; margin-bottom:20px;"">Which word describes you more?</div>","1","pairing","9","miserable","irritating","NegNeg","0","13","negative","negative","13","irritating","right","true"
"html-keyboard-response","20","20322","0.0-2.0-0.9","1015","39","post","3","evening","2026-04-07","2026-04-19","2026-04-22T03:51:14.087Z","Mozilla/5.0 (Linux; Android 14; Pixel 4a (5G) Build/UP1A.231105.001.B2; wv) AppleWebKit/537.36 (KHTML, like Gecko) Version/4.0 Chrome/147.0.7727.55 Mobile Safari/537.36","379","674","240","","null","<div style=""font-size:60px;"">+</div>","null","fixation","","","","","","","","","","","",""
"html-button-response","21","21133","0.0-2.0-1.9","1015","39","post","3","evening","2026-04-07","2026-04-19","2026-04-22T03:51:14.087Z","Mozilla/5.0 (Linux; Android 14; Pixel 4a (5G) Build/UP1A.231105.001.B2; wv) AppleWebKit/537.36 (KHTML, like Gecko) Version/4.0 Chrome/147.0.7727.55 Mobile Safari/537.36","379","674","240","","808","<div class=""prompt"" style=""font-size:24px; margin-bottom:20px;"">Which word describes you more?</div>","1","pairing","10","malicious","capable","PosNeg","0","100","negative","positive","100","capable","right","true"
"html-keyboard-response","22","21936","0.0-2.0-0.10","1015","39","post","3","evening","2026-04-07","2026-04-19","2026-04-22T03:51:14.087Z","Mozilla/5.0 (Linux; Android 14; Pixel 4a (5G) Build/UP1A.231105.001.B2; wv) AppleWebKit/537.36 (KHTML, like Gecko) Version/4.0 Chrome/147.0.7727.55 Mobile Safari/537.36","379","674","240","","null","<div style=""font-size:60px;"">+</div>","null","fixation","","","","","","","","","","","",""
"html-button-response","23","22903","0.0-2.0-1.10","1015","39","post","3","evening","2026-04-07","2026-04-19","2026-04-22T03:51:14.087Z","Mozilla/5.0 (Linux; Android 14; Pixel 4a (5G) Build/UP1A.231105.001.B2; wv) AppleWebKit/537.36 (KHTML, like Gecko) Version/4.0 Chrome/147.0.7727.55 Mobile Safari/537.36","379","674","240","","964","<div class=""prompt"" style=""font-size:24px; margin-bottom:20px;"">Which word describes you more?</div>","1","pairing","11","anxious","delight","PosNeg","7","70","negative","positive","63","delight","right","true"
"html-keyboard-response","24","23706","0.0-2.0-0.11","1015","39","post","3","evening","2026-04-07","2026-04-19","2026-04-22T03:51:14.087Z","Mozilla/5.0 (Linux; Android 14; Pixel 4a (5G) Build/UP1A.231105.001.B2; wv) AppleWebKit/537.36 (KHTML, like Gecko) Version/4.0 Chrome/147.0.7727.55 Mobile Safari/537.36","379","674","240","","null","<div style=""font-size:60px;"">+</div>","null","fixation","","","","","","","","","","","",""
"html-button-response","25","24591","0.0-2.0-1.11","1015","39","post","3","evening","2026-04-07","2026-04-19","2026-04-22T03:51:14.087Z","Mozilla/5.0 (Linux; Android 14; Pixel 4a (5G) Build/UP1A.231105.001.B2; wv) AppleWebKit/537.36 (KHTML, like Gecko) Version/4.0 Chrome/147.0.7727.55 Mobile Safari/537.36","379","674","240","","882","<div class=""prompt"" style=""font-size:24px; margin-bottom:20px;"">Which word describes you more?</div>","1","pairing","12","outcast","delight","PosNeg","100","70","negative","positive","30","delight","right","true"
"html-keyboard-response","26","25392","0.0-2.0-0.12","1015","39","post","3","evening","2026-04-07","2026-04-19","2026-04-22T03:51:14.087Z","Mozilla/5.0 (Linux; Android 14; Pixel 4a (5G) Build/UP1A.231105.001.B2; wv) AppleWebKit/537.36 (KHTML, like Gecko) Version/4.0 Chrome/147.0.7727.55 Mobile Safari/537.36","379","674","240","","null","<div style=""font-size:60px;"">+</div>","null","fixation","","","","","","","","","","","",""
"html-button-response","27","26248","0.0-2.0-1.12","1015","39","post","3","evening","2026-04-07","2026-04-19","2026-04-22T03:51:14.087Z","Mozilla/5.0 (Linux; Android 14; Pixel 4a (5G) Build/UP1A.231105.001.B2; wv) AppleWebKit/537.36 (KHTML, like Gecko) Version/4.0 Chrome/147.0.7727.55 Mobile Safari/537.36","379","674","240","","854","<div class=""prompt"" style=""font-size:24px; margin-bottom:20px;"">Which word describes you more?</div>","1","pairing","13","adorable","fun","PosPos","74","100","positive","positive","26","fun","right","true"
"html-keyboard-response","28","27051","0.0-2.0-0.13","1015","39","post","3","evening","2026-04-07","2026-04-19","2026-04-22T03:51:14.087Z","Mozilla/5.0 (Linux; Android 14; Pixel 4a (5G) Build/UP1A.231105.001.B2; wv) AppleWebKit/537.36 (KHTML, like Gecko) Version/4.0 Chrome/147.0.7727.55 Mobile Safari/537.36","379","674","240","","null","<div style=""font-size:60px;"">+</div>","null","fixation","","","","","","","","","","","",""
"html-button-response","29","32056","0.0-2.0-1.13","1015","39","post","3","evening","2026-04-07","2026-04-19","2026-04-22T03:51:14.087Z","Mozilla/5.0 (Linux; Android 14; Pixel 4a (5G) Build/UP1A.231105.001.B2; wv) AppleWebKit/537.36 (KHTML, like Gecko) Version/4.0 Chrome/147.0.7727.55 Mobile Safari/537.36","379","674","240","","null","<div class=""prompt"" style=""font-size:24px; margin-bottom:20px;"">Which word describes you more?</div>","null","pairing","14","gloomy","rude","NegNeg","14","0","negative","negative","14","null","null","false"
"html-keyboard-response","30","32865","0.0-2.0-0.14","1015","39","post","3","evening","2026-04-07","2026-04-19","2026-04-22T03:51:14.087Z","Mozilla/5.0 (Linux; Android 14; Pixel 4a (5G) Build/UP1A.231105.001.B2; wv) AppleWebKit/537.36 (KHTML, like Gecko) Version/4.0 Chrome/147.0.7727.55 Mobile Safari/537.36","379","674","240","","null","<div style=""font-size:60px;"">+</div>","null","fixation","","","","","","","","","","","",""
"html-button-response","31","33991","0.0-2.0-1.14","1015","39","post","3","evening","2026-04-07","2026-04-19","2026-04-22T03:51:14.087Z","Mozilla/5.0 (Linux; Android 14; Pixel 4a (5G) Build/UP1A.231105.001.B2; wv) AppleWebKit/537.36 (KHTML, like Gecko) Version/4.0 Chrome/147.0.7727.55 Mobile Safari/537.36","379","674","240","","1120","<div class=""prompt"" style=""font-size:24px; margin-bottom:20px;"">Which word describes you more?</div>","0","pairing","15","outcast","slob","NegNeg","100","0","negative","negative","100","outcast","left","true"
"html-keyboard-response","32","34794","0.0-2.0-0.15","1015","39","post","3","evening","2026-04-07","2026-04-19","2026-04-22T03:51:14.087Z","Mozilla/5.0 (Linux; Android 14; Pixel 4a (5G) Build/UP1A.231105.001.B2; wv) AppleWebKit/537.36 (KHTML, like Gecko) Version/4.0 Chrome/147.0.7727.55 Mobile Safari/537.36","379","674","240","","null","<div style=""font-size:60px;"">+</div>","null","fixation","","","","","","","","","","","",""
"html-button-response","33","36294","0.0-2.0-1.15","1015","39","post","3","evening","2026-04-07","2026-04-19","2026-04-22T03:51:14.087Z","Mozilla/5.0 (Linux; Android 14; Pixel 4a (5G) Build/UP1A.231105.001.B2; wv) AppleWebKit/537.36 (KHTML, like Gecko) Version/4.0 Chrome/147.0.7727.55 Mobile Safari/537.36","379","674","240","","1497","<div class=""prompt"" style=""font-size:24px; margin-bottom:20px;"">Which word describes you more?</div>","0","pairing","16","easygoing","liar","PosNeg","48","0","positive","negative","48","easygoing","left","true"
"html-keyboard-response","34","37097","0.0-2.0-0.16","1015","39","post","3","evening","2026-04-07","2026-04-19","2026-04-22T03:51:14.087Z","Mozilla/5.0 (Linux; Android 14; Pixel 4a (5G) Build/UP1A.231105.001.B2; wv) AppleWebKit/537.36 (KHTML, like Gecko) Version/4.0 Chrome/147.0.7727.55 Mobile Safari/537.36","379","674","240","","null","<div style=""font-size:60px;"">+</div>","null","fixation","","","","","","","","","","","",""
"html-button-response","35","41838","0.0-2.0-1.16","1015","39","post","3","evening","2026-04-07","2026-04-19","2026-04-22T03:51:14.087Z","Mozilla/5.0 (Linux; Android 14; Pixel 4a (5G) Build/UP1A.231105.001.B2; wv) AppleWebKit/537.36 (KHTML, like Gecko) Version/4.0 Chrome/147.0.7727.55 Mobile Safari/537.36","379","674","240","","4739","<div class=""prompt"" style=""font-size:24px; margin-bottom:20px;"">Which word describes you more?</div>","1","pairing","17","fool","unlucky","NegNeg","0","65","negative","negative","65","unlucky","right","true"
"html-keyboard-response","36","42640","0.0-2.0-0.17","1015","39","post","3","evening","2026-04-07","2026-04-19","2026-04-22T03:51:14.087Z","Mozilla/5.0 (Linux; Android 14; Pixel 4a (5G) Build/UP1A.231105.001.B2; wv) AppleWebKit/537.36 (KHTML, like Gecko) Version/4.0 Chrome/147.0.7727.55 Mobile Safari/537.36","379","674","240","","null","<div style=""font-size:60px;"">+</div>","null","fixation","","","","","","","","","","","",""
"html-button-response","37","43826","0.0-2.0-1.17","1015","39","post","3","evening","2026-04-07","2026-04-19","2026-04-22T03:51:14.087Z","Mozilla/5.0 (Linux; Android 14; Pixel 4a (5G) Build/UP1A.231105.001.B2; wv) AppleWebKit/537.36 (KHTML, like Gecko) Version/4.0 Chrome/147.0.7727.55 Mobile Safari/537.36","379","674","240","","1183","<div class=""prompt"" style=""font-size:24px; margin-bottom:20px;"">Which word describes you more?</div>","1","pairing","18","terrible","adventurous","PosNeg","0","100","negative","positive","100","adventurous","right","true"
"html-keyboard-response","38","44629","0.0-2.0-0.18","1015","39","post","3","evening","2026-04-07","2026-04-19","2026-04-22T03:51:14.087Z","Mozilla/5.0 (Linux; Android 14; Pixel 4a (5G) Build/UP1A.231105.001.B2; wv) AppleWebKit/537.36 (KHTML, like Gecko) Version/4.0 Chrome/147.0.7727.55 Mobile Safari/537.36","379","674","240","","null","<div style=""font-size:60px;"">+</div>","null","fixation","","","","","","","","","","","",""
"html-button-response","39","47603","0.0-2.0-1.18","1015","39","post","3","evening","2026-04-07","2026-04-19","2026-04-22T03:51:14.087Z","Mozilla/5.0 (Linux; Android 14; Pixel 4a (5G) Build/UP1A.231105.001.B2; wv) AppleWebKit/537.36 (KHTML, like Gecko) Version/4.0 Chrome/147.0.7727.55 Mobile Safari/537.36","379","674","240","","2971","<div class=""prompt"" style=""font-size:24px; margin-bottom:20px;"">Which word describes you more?</div>","1","pairing","19","awkward","goodwilled","PosNeg","70","100","negative","positive","30","goodwilled","right","true"
"html-keyboard-response","40","48406","0.0-2.0-0.19","1015","39","post","3","evening","2026-04-07","2026-04-19","2026-04-22T03:51:14.087Z","Mozilla/5.0 (Linux; Android 14; Pixel 4a (5G) Build/UP1A.231105.001.B2; wv) AppleWebKit/537.36 (KHTML, like Gecko) Version/4.0 Chrome/147.0.7727.55 Mobile Safari/537.36","379","674","240","","null","<div style=""font-size:60px;"">+</div>","null","fixation","","","","","","","","","","","",""
"html-button-response","41","49518","0.0-2.0-1.19","1015","39","post","3","evening","2026-04-07","2026-04-19","2026-04-22T03:51:14.087Z","Mozilla/5.0 (Linux; Android 14; Pixel 4a (5G) Build/UP1A.231105.001.B2; wv) AppleWebKit/537.36 (KHTML, like Gecko) Version/4.0 Chrome/147.0.7727.55 Mobile Safari/537.36","379","674","240","","1109","<div class=""prompt"" style=""font-size:24px; margin-bottom:20px;"">Which word describes you more?</div>","0","pairing","20","witty","awkward","PosNeg","100","70","positive","negative","30","witty","left","true"
"html-keyboard-response","42","50321","0.0-2.0-0.20","1015","39","post","3","evening","2026-04-07","2026-04-19","2026-04-22T03:51:14.087Z","Mozilla/5.0 (Linux; Android 14; Pixel 4a (5G) Build/UP1A.231105.001.B2; wv) AppleWebKit/537.36 (KHTML, like Gecko) Version/4.0 Chrome/147.0.7727.55 Mobile Safari/537.36","379","674","240","","null","<div style=""font-size:60px;"">+</div>","null","fixation","","","","","","","","","","","",""
"html-button-response","43","51325","0.0-2.0-1.20","1015","39","post","3","evening","2026-04-07","2026-04-19","2026-04-22T03:51:14.087Z","Mozilla/5.0 (Linux; Android 14; Pixel 4a (5G) Build/UP1A.231105.001.B2; wv) AppleWebKit/537.36 (KHTML, like Gecko) Version/4.0 Chrome/147.0.7727.55 Mobile Safari/537.36","379","674","240","","1001","<div class=""prompt"" style=""font-size:24px; margin-bottom:20px;"">Which word describes you more?</div>","0","pairing","21","skilled","easygoing","PosPos","100","48","positive","positive","52","skilled","left","true"
"html-keyboard-response","44","52127","0.0-2.0-0.21","1015","39","post","3","evening","2026-04-07","2026-04-19","2026-04-22T03:51:14.087Z","Mozilla/5.0 (Linux; Android 14; Pixel 4a (5G) Build/UP1A.231105.001.B2; wv) AppleWebKit/537.36 (KHTML, like Gecko) Version/4.0 Chrome/147.0.7727.55 Mobile Safari/537.36","379","674","240","","null","<div style=""font-size:60px;"">+</div>","null","fixation","","","","","","","","","","","",""
"html-button-response","45","55170","0.0-2.0-1.21","1015","39","post","3","evening","2026-04-07","2026-04-19","2026-04-22T03:51:14.087Z","Mozilla/5.0 (Linux; Android 14; Pixel 4a (5G) Build/UP1A.231105.001.B2; wv) AppleWebKit/537.36 (KHTML, like Gecko) Version/4.0 Chrome/147.0.7727.55 Mobile Safari/537.36","379","674","240","","3039","<div class=""prompt"" style=""font-size:24px; margin-bottom:20px;"">Which word describes you more?</div>","0","pairing","22","unlucky","inadequate","NegNeg","65","0","negative","negative","65","unlucky","left","true"
"html-keyboard-response","46","55973","0.0-2.0-0.22","1015","39","post","3","evening","2026-04-07","2026-04-19","2026-04-22T03:51:14.087Z","Mozilla/5.0 (Linux; Android 14; Pixel 4a (5G) Build/UP1A.231105.001.B2; wv) AppleWebKit/537.36 (KHTML, like Gecko) Version/4.0 Chrome/147.0.7727.55 Mobile Safari/537.36","379","674","240","","null","<div style=""font-size:60px;"">+</div>","null","fixation","","","","","","","","","","","",""
"html-button-response","47","58168","0.0-2.0-1.22","1015","39","post","3","evening","2026-04-07","2026-04-19","2026-04-22T03:51:14.087Z","Mozilla/5.0 (Linux; Android 14; Pixel 4a (5G) Build/UP1A.231105.001.B2; wv) AppleWebKit/537.36 (KHTML, like Gecko) Version/4.0 Chrome/147.0.7727.55 Mobile Safari/537.36","379","674","240","","2189","<div class=""prompt"" style=""font-size:24px; margin-bottom:20px;"">Which word describes you more?</div>","1","pairing","23","incompetent","awkward","NegNeg","0","70","negative","negative","70","awkward","right","true"
"html-keyboard-response","48","58971","0.0-2.0-0.23","1015","39","post","3","evening","2026-04-07","2026-04-19","2026-04-22T03:51:14.087Z","Mozilla/5.0 (Linux; Android 14; Pixel 4a (5G) Build/UP1A.231105.001.B2; wv) AppleWebKit/537.36 (KHTML, like Gecko) Version/4.0 Chrome/147.0.7727.55 Mobile Safari/537.36","379","674","240","","null","<div style=""font-size:60px;"">+</div>","null","fixation","","","","","","","","","","","",""
"html-button-response","49","60313","0.0-2.0-1.23","1015","39","post","3","evening","2026-04-07","2026-04-19","2026-04-22T03:51:14.087Z","Mozilla/5.0 (Linux; Android 14; Pixel 4a (5G) Build/UP1A.231105.001.B2; wv) AppleWebKit/537.36 (KHTML, like Gecko) Version/4.0 Chrome/147.0.7727.55 Mobile Safari/537.36","379","674","240","","1340","<div class=""prompt"" style=""font-size:24px; margin-bottom:20px;"">Which word describes you more?</div>","1","pairing","24","reliable","capable","PosPos","100","100","positive","positive","0","capable","right","true"
"instructions","50","62161","0.0-3.0","1015","39","post","3","evening","2026-04-07","2026-04-19","2026-04-22T03:51:14.087Z","Mozilla/5.0 (Linux; Android 14; Pixel 4a (5G) Build/UP1A.231105.001.B2; wv) AppleWebKit/537.36 (KHTML, like Gecko) Version/4.0 Chrome/147.0.7727.55 Mobile Safari/537.36","379","674","240","[{""page_index"":0,""viewing_time"":1847}]","1848","","","","","","","","","","","","","","",""
