"trial_type","trial_index","time_elapsed","internal_node_id","PUNS_ID","session_number","session_phase","session_day","session_slot","ema_start_date","ema_post_start_date","experiment_start","browser","screen_width","screen_height","timezone_offset","view_history","rt","stimulus","response","which_experiment_phase","trial_number","left_word","right_word","valence","left_base_rating","right_base_rating","left_valence","right_valence","abs_diff","participant_response","chosen_side","valid_response"
"pavlovia","0","1437","0.0-0.0","1067","38","post","3","afternoon","2026-04-08","2026-04-21","2026-04-23T16:38:22.037Z","Mozilla/5.0 (iPhone; CPU iPhone OS 18_7 like Mac OS X) AppleWebKit/605.1.15 (KHTML, like Gecko) Mobile/15E148","358","632","240","","","","","","","","","","","","","","","","",""
"instructions","1","4489","0.0-1.0","1067","38","post","3","afternoon","2026-04-08","2026-04-21","2026-04-23T16:38:22.037Z","Mozilla/5.0 (iPhone; CPU iPhone OS 18_7 like Mac OS X) AppleWebKit/605.1.15 (KHTML, like Gecko) Mobile/15E148","358","632","240","[{""page_index"":0,""viewing_time"":622},{""page_index"":1,""viewing_time"":426},{""page_index"":2,""viewing_time"":1532},{""page_index"":3,""viewing_time"":466}]","3046","","","","","","","","","","","","","","",""
"html-keyboard-response","2","5294","0.0-2.0-0.0","1067","38","post","3","afternoon","2026-04-08","2026-04-21","2026-04-23T16:38:22.037Z","Mozilla/5.0 (iPhone; CPU iPhone OS 18_7 like Mac OS X) AppleWebKit/605.1.15 (KHTML, like Gecko) Mobile/15E148","358","632","240","","null","<div style=""font-size:60px;"">+</div>","null","fixation","","","","","","","","","","","",""
"html-button-response","3","7126","0.0-2.0-1.0","1067","38","post","3","afternoon","2026-04-08","2026-04-21","2026-04-23T16:38:22.037Z","Mozilla/5.0 (iPhone; CPU iPhone OS 18_7 like Mac OS X) AppleWebKit/605.1.15 (KHTML, like Gecko) Mobile/15E148","358","632","240","","1826","<div class=""prompt"" style=""font-size:24px; margin-bottom:20px;"">Which word describes you more?</div>","0","pairing","1","authentic","healthy","PosPos","93","59","positive","positive","34","authentic","left","true"
"html-keyboard-response","4","7929","0.0-2.0-0.1","1067","38","post","3","afternoon","2026-04-08","2026-04-21","2026-04-23T16:38:22.037Z","Mozilla/5.0 (iPhone; CPU iPhone OS 18_7 like Mac OS X) AppleWebKit/605.1.15 (KHTML, like Gecko) Mobile/15E148","358","632","240","","null","<div style=""font-size:60px;"">+</div>","null","fixation","","","","","","","","","","","",""
"html-button-response","5","10137","0.0-2.0-1.1","1067","38","post","3","afternoon","2026-04-08","2026-04-21","2026-04-23T16:38:22.037Z","Mozilla/5.0 (iPhone; CPU iPhone OS 18_7 like Mac OS X) AppleWebKit/605.1.15 (KHTML, like Gecko) Mobile/15E148","358","632","240","","2205","<div class=""prompt"" style=""font-size:24px; margin-bottom:20px;"">Which word describes you more?</div>","1","pairing","2","awful","hopeless","NegNeg","5","13","negative","negative","8","hopeless","right","true"
"html-keyboard-response","6","10939","0.0-2.0-0.2","1067","38","post","3","afternoon","2026-04-08","2026-04-21","2026-04-23T16:38:22.037Z","Mozilla/5.0 (iPhone; CPU iPhone OS 18_7 like Mac OS X) AppleWebKit/605.1.15 (KHTML, like Gecko) Mobile/15E148","358","632","240","","null","<div style=""font-size:60px;"">+</div>","null","fixation","","","","","","","","","","","",""
"html-button-response","7","11924","0.0-2.0-1.2","1067","38","post","3","afternoon","2026-04-08","2026-04-21","2026-04-23T16:38:22.037Z","Mozilla/5.0 (iPhone; CPU iPhone OS 18_7 like Mac OS X) AppleWebKit/605.1.15 (KHTML, like Gecko) Mobile/15E148","358","632","240","","982","<div class=""prompt"" style=""font-size:24px; margin-bottom:20px;"">Which word describes you more?</div>","1","pairing","3","phony","menace","NegNeg","1","70","negative","negative","69","menace","right","true"
"html-keyboard-response","8","12727","0.0-2.0-0.3","1067","38","post","3","afternoon","2026-04-08","2026-04-21","2026-04-23T16:38:22.037Z","Mozilla/5.0 (iPhone; CPU iPhone OS 18_7 like Mac OS X) AppleWebKit/605.1.15 (KHTML, like Gecko) Mobile/15E148","358","632","240","","null","<div style=""font-size:60px;"">+</div>","null","fixation","","","","","","","","","","","",""
"html-button-response","9","13891","0.0-2.0-1.3","1067","38","post","3","afternoon","2026-04-08","2026-04-21","2026-04-23T16:38:22.037Z","Mozilla/5.0 (iPhone; CPU iPhone OS 18_7 like Mac OS X) AppleWebKit/605.1.15 (KHTML, like Gecko) Mobile/15E148","358","632","240","","1162","<div class=""prompt"" style=""font-size:24px; margin-bottom:20px;"">Which word describes you more?</div>","1","pairing","4","rude","brave","PosNeg","51","71","negative","positive","20","brave","right","true"
"html-keyboard-response","10","14694","0.0-2.0-0.4","1067","38","post","3","afternoon","2026-04-08","2026-04-21","2026-04-23T16:38:22.037Z","Mozilla/5.0 (iPhone; CPU iPhone OS 18_7 like Mac OS X) AppleWebKit/605.1.15 (KHTML, like Gecko) Mobile/15E148","358","632","240","","null","<div style=""font-size:60px;"">+</div>","null","fixation","","","","","","","","","","","",""
"html-button-response","11","17290","0.0-2.0-1.4","1067","38","post","3","afternoon","2026-04-08","2026-04-21","2026-04-23T16:38:22.037Z","Mozilla/5.0 (iPhone; CPU iPhone OS 18_7 like Mac OS X) AppleWebKit/605.1.15 (KHTML, like Gecko) Mobile/15E148","358","632","240","","2595","<div class=""prompt"" style=""font-size:24px; margin-bottom:20px;"">Which word describes you more?</div>","1","pairing","5","liar","toxic","NegNeg","6","63","negative","negative","57","toxic","right","true"
"html-keyboard-response","12","18094","0.0-2.0-0.5","1067","38","post","3","afternoon","2026-04-08","2026-04-21","2026-04-23T16:38:22.037Z","Mozilla/5.0 (iPhone; CPU iPhone OS 18_7 like Mac OS X) AppleWebKit/605.1.15 (KHTML, like Gecko) Mobile/15E148","358","632","240","","null","<div style=""font-size:60px;"">+</div>","null","fixation","","","","","","","","","","","",""
"html-button-response","13","20591","0.0-2.0-1.5","1067","38","post","3","afternoon","2026-04-08","2026-04-21","2026-04-23T16:38:22.037Z","Mozilla/5.0 (iPhone; CPU iPhone OS 18_7 like Mac OS X) AppleWebKit/605.1.15 (KHTML, like Gecko) Mobile/15E148","358","632","240","","2494","<div class=""prompt"" style=""font-size:24px; margin-bottom:20px;"">Which word describes you more?</div>","0","pairing","6","visionary","unlucky","PosNeg","57","12","positive","negative","45","visionary","left","true"
"html-keyboard-response","14","21394","0.0-2.0-0.6","1067","38","post","3","afternoon","2026-04-08","2026-04-21","2026-04-23T16:38:22.037Z","Mozilla/5.0 (iPhone; CPU iPhone OS 18_7 like Mac OS X) AppleWebKit/605.1.15 (KHTML, like Gecko) Mobile/15E148","358","632","240","","null","<div style=""font-size:60px;"">+</div>","null","fixation","","","","","","","","","","","",""
"html-button-response","15","23342","0.0-2.0-1.6","1067","38","post","3","afternoon","2026-04-08","2026-04-21","2026-04-23T16:38:22.037Z","Mozilla/5.0 (iPhone; CPU iPhone OS 18_7 like Mac OS X) AppleWebKit/605.1.15 (KHTML, like Gecko) Mobile/15E148","358","632","240","","1945","<div class=""prompt"" style=""font-size:24px; margin-bottom:20px;"">Which word describes you more?</div>","0","pairing","7","resourceful","legendary","PosPos","65","57","positive","positive","8","resourceful","left","true"
"html-keyboard-response","16","24146","0.0-2.0-0.7","1067","38","post","3","afternoon","2026-04-08","2026-04-21","2026-04-23T16:38:22.037Z","Mozilla/5.0 (iPhone; CPU iPhone OS 18_7 like Mac OS X) AppleWebKit/605.1.15 (KHTML, like Gecko) Mobile/15E148","358","632","240","","null","<div style=""font-size:60px;"">+</div>","null","fixation","","","","","","","","","","","",""
"html-button-response","17","25225","0.0-2.0-1.7","1067","38","post","3","afternoon","2026-04-08","2026-04-21","2026-04-23T16:38:22.037Z","Mozilla/5.0 (iPhone; CPU iPhone OS 18_7 like Mac OS X) AppleWebKit/605.1.15 (KHTML, like Gecko) Mobile/15E148","358","632","240","","1075","<div class=""prompt"" style=""font-size:24px; margin-bottom:20px;"">Which word describes you more?</div>","0","pairing","8","fun","prick","PosNeg","81","54","positive","negative","27","fun","left","true"
"html-keyboard-response","18","26028","0.0-2.0-0.8","1067","38","post","3","afternoon","2026-04-08","2026-04-21","2026-04-23T16:38:22.037Z","Mozilla/5.0 (iPhone; CPU iPhone OS 18_7 like Mac OS X) AppleWebKit/605.1.15 (KHTML, like Gecko) Mobile/15E148","358","632","240","","null","<div style=""font-size:60px;"">+</div>","null","fixation","","","","","","","","","","","",""
"html-button-response","19","27938","0.0-2.0-1.8","1067","38","post","3","afternoon","2026-04-08","2026-04-21","2026-04-23T16:38:22.037Z","Mozilla/5.0 (iPhone; CPU iPhone OS 18_7 like Mac OS X) AppleWebKit/605.1.15 (KHTML, like Gecko) Mobile/15E148","358","632","240","","1908","<div class=""prompt"" style=""font-size:24px; margin-bottom:20px;"">Which word describes you more?</div>","0","pairing","9","reliable","quitter","PosNeg","77","34","positive","negative","43","reliable","left","true"
"html-keyboard-response","20","28740","0.0-2.0-0.9","1067","38","post","3","afternoon","2026-04-08","2026-04-21","2026-04-23T16:38:22.037Z","Mozilla/5.0 (iPhone; CPU iPhone OS 18_7 like Mac OS X) AppleWebKit/605.1.15 (KHTML, like Gecko) Mobile/15E148","358","632","240","","null","<div style=""font-size:60px;"">+</div>","null","fixation","","","","","","","","","","","",""
"html-button-response","21","29977","0.0-2.0-1.9","1067","38","post","3","afternoon","2026-04-08","2026-04-21","2026-04-23T16:38:22.037Z","Mozilla/5.0 (iPhone; CPU iPhone OS 18_7 like Mac OS X) AppleWebKit/605.1.15 (KHTML, like Gecko) Mobile/15E148","358","632","240","","1236","<div class=""prompt"" style=""font-size:24px; margin-bottom:20px;"">Which word describes you more?</div>","1","pairing","10","spirited","smiley","PosPos","71","93","positive","positive","22","smiley","right","true"
"html-keyboard-response","22","30783","0.0-2.0-0.10","1067","38","post","3","afternoon","2026-04-08","2026-04-21","2026-04-23T16:38:22.037Z","Mozilla/5.0 (iPhone; CPU iPhone OS 18_7 like Mac OS X) AppleWebKit/605.1.15 (KHTML, like Gecko) Mobile/15E148","358","632","240","","null","<div style=""font-size:60px;"">+</div>","null","fixation","","","","","","","","","","","",""
"html-button-response","23","33042","0.0-2.0-1.10","1067","38","post","3","afternoon","2026-04-08","2026-04-21","2026-04-23T16:38:22.037Z","Mozilla/5.0 (iPhone; CPU iPhone OS 18_7 like Mac OS X) AppleWebKit/605.1.15 (KHTML, like Gecko) Mobile/15E148","358","632","240","","2256","<div class=""prompt"" style=""font-size:24px; margin-bottom:20px;"">Which word describes you more?</div>","1","pairing","11","boring","idealistic","PosNeg","4","73","negative","positive","69","idealistic","right","true"
"html-keyboard-response","24","33846","0.0-2.0-0.11","1067","38","post","3","afternoon","2026-04-08","2026-04-21","2026-04-23T16:38:22.037Z","Mozilla/5.0 (iPhone; CPU iPhone OS 18_7 like Mac OS X) AppleWebKit/605.1.15 (KHTML, like Gecko) Mobile/15E148","358","632","240","","null","<div style=""font-size:60px;"">+</div>","null","fixation","","","","","","","","","","","",""
"html-button-response","25","36610","0.0-2.0-1.11","1067","38","post","3","afternoon","2026-04-08","2026-04-21","2026-04-23T16:38:22.037Z","Mozilla/5.0 (iPhone; CPU iPhone OS 18_7 like Mac OS X) AppleWebKit/605.1.15 (KHTML, like Gecko) Mobile/15E148","358","632","240","","2762","<div class=""prompt"" style=""font-size:24px; margin-bottom:20px;"">Which word describes you more?</div>","0","pairing","12","patient","helpless","PosNeg","41","69","positive","negative","28","patient","left","true"
"html-keyboard-response","26","37413","0.0-2.0-0.12","1067","38","post","3","afternoon","2026-04-08","2026-04-21","2026-04-23T16:38:22.037Z","Mozilla/5.0 (iPhone; CPU iPhone OS 18_7 like Mac OS X) AppleWebKit/605.1.15 (KHTML, like Gecko) Mobile/15E148","358","632","240","","null","<div style=""font-size:60px;"">+</div>","null","fixation","","","","","","","","","","","",""
"html-button-response","27","39077","0.0-2.0-1.12","1067","38","post","3","afternoon","2026-04-08","2026-04-21","2026-04-23T16:38:22.037Z","Mozilla/5.0 (iPhone; CPU iPhone OS 18_7 like Mac OS X) AppleWebKit/605.1.15 (KHTML, like Gecko) Mobile/15E148","358","632","240","","1662","<div class=""prompt"" style=""font-size:24px; margin-bottom:20px;"">Which word describes you more?</div>","0","pairing","13","boring","disgrace","NegNeg","4","0","negative","negative","4","boring","left","true"
"html-keyboard-response","28","39879","0.0-2.0-0.13","1067","38","post","3","afternoon","2026-04-08","2026-04-21","2026-04-23T16:38:22.037Z","Mozilla/5.0 (iPhone; CPU iPhone OS 18_7 like Mac OS X) AppleWebKit/605.1.15 (KHTML, like Gecko) Mobile/15E148","358","632","240","","null","<div style=""font-size:60px;"">+</div>","null","fixation","","","","","","","","","","","",""
"html-button-response","29","41154","0.0-2.0-1.13","1067","38","post","3","afternoon","2026-04-08","2026-04-21","2026-04-23T16:38:22.037Z","Mozilla/5.0 (iPhone; CPU iPhone OS 18_7 like Mac OS X) AppleWebKit/605.1.15 (KHTML, like Gecko) Mobile/15E148","358","632","240","","1272","<div class=""prompt"" style=""font-size:24px; margin-bottom:20px;"">Which word describes you more?</div>","0","pairing","14","menace","garbage","NegNeg","70","0","negative","negative","70","menace","left","true"
"html-keyboard-response","30","41956","0.0-2.0-0.14","1067","38","post","3","afternoon","2026-04-08","2026-04-21","2026-04-23T16:38:22.037Z","Mozilla/5.0 (iPhone; CPU iPhone OS 18_7 like Mac OS X) AppleWebKit/605.1.15 (KHTML, like Gecko) Mobile/15E148","358","632","240","","null","<div style=""font-size:60px;"">+</div>","null","fixation","","","","","","","","","","","",""
"html-button-response","31","43239","0.0-2.0-1.14","1067","38","post","3","afternoon","2026-04-08","2026-04-21","2026-04-23T16:38:22.037Z","Mozilla/5.0 (iPhone; CPU iPhone OS 18_7 like Mac OS X) AppleWebKit/605.1.15 (KHTML, like Gecko) Mobile/15E148","358","632","240","","1280","<div class=""prompt"" style=""font-size:24px; margin-bottom:20px;"">Which word describes you more?</div>","0","pairing","15","menace","problematic","NegNeg","70","18","negative","negative","52","menace","left","true"
"html-keyboard-response","32","44041","0.0-2.0-0.15","1067","38","post","3","afternoon","2026-04-08","2026-04-21","2026-04-23T16:38:22.037Z","Mozilla/5.0 (iPhone; CPU iPhone OS 18_7 like Mac OS X) AppleWebKit/605.1.15 (KHTML, like Gecko) Mobile/15E148","358","632","240","","null","<div style=""font-size:60px;"">+</div>","null","fixation","","","","","","","","","","","",""
"html-button-response","33","45909","0.0-2.0-1.15","1067","38","post","3","afternoon","2026-04-08","2026-04-21","2026-04-23T16:38:22.037Z","Mozilla/5.0 (iPhone; CPU iPhone OS 18_7 like Mac OS X) AppleWebKit/605.1.15 (KHTML, like Gecko) Mobile/15E148","358","632","240","","1865","<div class=""prompt"" style=""font-size:24px; margin-bottom:20px;"">Which word describes you more?</div>","0","pairing","16","fun","shameful","PosNeg","81","12","positive","negative","69","fun","left","true"
"html-keyboard-response","34","46712","0.0-2.0-0.16","1067","38","post","3","afternoon","2026-04-08","2026-04-21","2026-04-23T16:38:22.037Z","Mozilla/5.0 (iPhone; CPU iPhone OS 18_7 like Mac OS X) AppleWebKit/605.1.15 (KHTML, like Gecko) Mobile/15E148","358","632","240","","null","<div style=""font-size:60px;"">+</div>","null","fixation","","","","","","","","","","","",""
"html-button-response","35","48427","0.0-2.0-1.16","1067","38","post","3","afternoon","2026-04-08","2026-04-21","2026-04-23T16:38:22.037Z","Mozilla/5.0 (iPhone; CPU iPhone OS 18_7 like Mac OS X) AppleWebKit/605.1.15 (KHTML, like Gecko) Mobile/15E148","358","632","240","","1712","<div class=""prompt"" style=""font-size:24px; margin-bottom:20px;"">Which word describes you more?</div>","0","pairing","17","admired","knowledgeable","PosPos","56","85","positive","positive","29","admired","left","true"
"html-keyboard-response","36","49230","0.0-2.0-0.17","1067","38","post","3","afternoon","2026-04-08","2026-04-21","2026-04-23T16:38:22.037Z","Mozilla/5.0 (iPhone; CPU iPhone OS 18_7 like Mac OS X) AppleWebKit/605.1.15 (KHTML, like Gecko) Mobile/15E148","358","632","240","","null","<div style=""font-size:60px;"">+</div>","null","fixation","","","","","","","","","","","",""
"html-button-response","37","51294","0.0-2.0-1.17","1067","38","post","3","afternoon","2026-04-08","2026-04-21","2026-04-23T16:38:22.037Z","Mozilla/5.0 (iPhone; CPU iPhone OS 18_7 like Mac OS X) AppleWebKit/605.1.15 (KHTML, like Gecko) Mobile/15E148","358","632","240","","2062","<div class=""prompt"" style=""font-size:24px; margin-bottom:20px;"">Which word describes you more?</div>","0","pairing","18","sophisticated","unlucky","PosNeg","71","12","positive","negative","59","sophisticated","left","true"
"html-keyboard-response","38","52097","0.0-2.0-0.18","1067","38","post","3","afternoon","2026-04-08","2026-04-21","2026-04-23T16:38:22.037Z","Mozilla/5.0 (iPhone; CPU iPhone OS 18_7 like Mac OS X) AppleWebKit/605.1.15 (KHTML, like Gecko) Mobile/15E148","358","632","240","","null","<div style=""font-size:60px;"">+</div>","null","fixation","","","","","","","","","","","",""
"html-button-response","39","53226","0.0-2.0-1.18","1067","38","post","3","afternoon","2026-04-08","2026-04-21","2026-04-23T16:38:22.037Z","Mozilla/5.0 (iPhone; CPU iPhone OS 18_7 like Mac OS X) AppleWebKit/605.1.15 (KHTML, like Gecko) Mobile/15E148","358","632","240","","1126","<div class=""prompt"" style=""font-size:24px; margin-bottom:20px;"">Which word describes you more?</div>","0","pairing","19","pleased","terrible","PosNeg","88","4","positive","negative","84","pleased","left","true"
"html-keyboard-response","40","54028","0.0-2.0-0.19","1067","38","post","3","afternoon","2026-04-08","2026-04-21","2026-04-23T16:38:22.037Z","Mozilla/5.0 (iPhone; CPU iPhone OS 18_7 like Mac OS X) AppleWebKit/605.1.15 (KHTML, like Gecko) Mobile/15E148","358","632","240","","null","<div style=""font-size:60px;"">+</div>","null","fixation","","","","","","","","","","","",""
"html-button-response","41","55228","0.0-2.0-1.19","1067","38","post","3","afternoon","2026-04-08","2026-04-21","2026-04-23T16:38:22.037Z","Mozilla/5.0 (iPhone; CPU iPhone OS 18_7 like Mac OS X) AppleWebKit/605.1.15 (KHTML, like Gecko) Mobile/15E148","358","632","240","","1197","<div class=""prompt"" style=""font-size:24px; margin-bottom:20px;"">Which word describes you more?</div>","1","pairing","20","wise","learner","PosPos","46","100","positive","positive","54","learner","right","true"
"html-keyboard-response","42","56030","0.0-2.0-0.20","1067","38","post","3","afternoon","2026-04-08","2026-04-21","2026-04-23T16:38:22.037Z","Mozilla/5.0 (iPhone; CPU iPhone OS 18_7 like Mac OS X) AppleWebKit/605.1.15 (KHTML, like Gecko) Mobile/15E148","358","632","240","","null","<div style=""font-size:60px;"">+</div>","null","fixation","","","","","","","","","","","",""
"html-button-response","43","57644","0.0-2.0-1.20","1067","38","post","3","afternoon","2026-04-08","2026-04-21","2026-04-23T16:38:22.037Z","Mozilla/5.0 (iPhone; CPU iPhone OS 18_7 like Mac OS X) AppleWebKit/605.1.15 (KHTML, like Gecko) Mobile/15E148","358","632","240","","1611","<div class=""prompt"" style=""font-size:24px; margin-bottom:20px;"">Which word describes you more?</div>","1","pairing","21","healthy","satisfied","PosPos","59","71","positive","positive","12","satisfied","right","true"
"html-keyboard-response","44","58447","0.0-2.0-0.21","1067","38","post","3","afternoon","2026-04-08","2026-04-21","2026-04-23T16:38:22.037Z","Mozilla/5.0 (iPhone; CPU iPhone OS 18_7 like Mac OS X) AppleWebKit/605.1.15 (KHTML, like Gecko) Mobile/15E148","358","632","240","","null","<div style=""font-size:60px;"">+</div>","null","fixation","","","","","","","","","","","",""
"html-button-response","45","60179","0.0-2.0-1.21","1067","38","post","3","afternoon","2026-04-08","2026-04-21","2026-04-23T16:38:22.037Z","Mozilla/5.0 (iPhone; CPU iPhone OS 18_7 like Mac OS X) AppleWebKit/605.1.15 (KHTML, like Gecko) Mobile/15E148","358","632","240","","1730","<div class=""prompt"" style=""font-size:24px; margin-bottom:20px;"">Which word describes you more?</div>","0","pairing","22","expert","vengeful","PosNeg","51","62","positive","negative","11","expert","left","true"
"html-keyboard-response","46","60982","0.0-2.0-0.22","1067","38","post","3","afternoon","2026-04-08","2026-04-21","2026-04-23T16:38:22.037Z","Mozilla/5.0 (iPhone; CPU iPhone OS 18_7 like Mac OS X) AppleWebKit/605.1.15 (KHTML, like Gecko) Mobile/15E148","358","632","240","","null","<div style=""font-size:60px;"">+</div>","null","fixation","","","","","","","","","","","",""
"html-button-response","47","62061","0.0-2.0-1.22","1067","38","post","3","afternoon","2026-04-08","2026-04-21","2026-04-23T16:38:22.037Z","Mozilla/5.0 (iPhone; CPU iPhone OS 18_7 like Mac OS X) AppleWebKit/605.1.15 (KHTML, like Gecko) Mobile/15E148","358","632","240","","1077","<div class=""prompt"" style=""font-size:24px; margin-bottom:20px;"">Which word describes you more?</div>","1","pairing","23","stingy","companion","PosNeg","35","100","negative","positive","65","companion","right","true"
"html-keyboard-response","48","62864","0.0-2.0-0.23","1067","38","post","3","afternoon","2026-04-08","2026-04-21","2026-04-23T16:38:22.037Z","Mozilla/5.0 (iPhone; CPU iPhone OS 18_7 like Mac OS X) AppleWebKit/605.1.15 (KHTML, like Gecko) Mobile/15E148","358","632","240","","null","<div style=""font-size:60px;"">+</div>","null","fixation","","","","","","","","","","","",""
"html-button-response","49","65745","0.0-2.0-1.23","1067","38","post","3","afternoon","2026-04-08","2026-04-21","2026-04-23T16:38:22.037Z","Mozilla/5.0 (iPhone; CPU iPhone OS 18_7 like Mac OS X) AppleWebKit/605.1.15 (KHTML, like Gecko) Mobile/15E148","358","632","240","","2879","<div class=""prompt"" style=""font-size:24px; margin-bottom:20px;"">Which word describes you more?</div>","1","pairing","24","hater","champion","PosNeg","60","47","negative","positive","13","champion","right","true"
"instructions","50","67045","0.0-3.0","1067","38","post","3","afternoon","2026-04-08","2026-04-21","2026-04-23T16:38:22.037Z","Mozilla/5.0 (iPhone; CPU iPhone OS 18_7 like Mac OS X) AppleWebKit/605.1.15 (KHTML, like Gecko) Mobile/15E148","358","632","240","[{""page_index"":0,""viewing_time"":1298}]","1298","","","","","","","","","","","","","","",""
