"trial_type","trial_index","time_elapsed","internal_node_id","PUNS_ID","session_number","session_phase","session_day","session_slot","ema_start_date","ema_post_start_date","experiment_start","browser","screen_width","screen_height","timezone_offset","view_history","rt","stimulus","response","which_experiment_phase","trial_number","left_word","right_word","valence","left_base_rating","right_base_rating","left_valence","right_valence","abs_diff","participant_response","chosen_side","valid_response"
"pavlovia","0","2064","0.0-0.0","1032","7","pre","3","morning","2026-04-15","2026-04-27","2026-04-17T17:02:23.465Z","Mozilla/5.0 (Linux; Android 16; Pixel 9 Pro Build/CP1A.260405.005; wv) AppleWebKit/537.36 (KHTML, like Gecko) Version/4.0 Chrome/146.0.7680.177 Mobile Safari/537.36","394","719","420","","","","","","","","","","","","","","","","",""
"instructions","1","6604","0.0-1.0","1032","7","pre","3","morning","2026-04-15","2026-04-27","2026-04-17T17:02:23.465Z","Mozilla/5.0 (Linux; Android 16; Pixel 9 Pro Build/CP1A.260405.005; wv) AppleWebKit/537.36 (KHTML, like Gecko) Version/4.0 Chrome/146.0.7680.177 Mobile Safari/537.36","394","719","420","[{""page_index"":0,""viewing_time"":1574},{""page_index"":1,""viewing_time"":1033},{""page_index"":2,""viewing_time"":900},{""page_index"":3,""viewing_time"":1025}]","4533","","","","","","","","","","","","","","",""
"html-keyboard-response","2","7409","0.0-2.0-0.0","1032","7","pre","3","morning","2026-04-15","2026-04-27","2026-04-17T17:02:23.465Z","Mozilla/5.0 (Linux; Android 16; Pixel 9 Pro Build/CP1A.260405.005; wv) AppleWebKit/537.36 (KHTML, like Gecko) Version/4.0 Chrome/146.0.7680.177 Mobile Safari/537.36","394","719","420","","null","<div style=""font-size:60px;"">+</div>","null","fixation","","","","","","","","","","","",""
"html-button-response","3","9368","0.0-2.0-1.0","1032","7","pre","3","morning","2026-04-15","2026-04-27","2026-04-17T17:02:23.465Z","Mozilla/5.0 (Linux; Android 16; Pixel 9 Pro Build/CP1A.260405.005; wv) AppleWebKit/537.36 (KHTML, like Gecko) Version/4.0 Chrome/146.0.7680.177 Mobile Safari/537.36","394","719","420","","1949","<div class=""prompt"" style=""font-size:24px; margin-bottom:20px;"">Which word describes you more?</div>","0","pairing","1","resourceful","dull","PosNeg","86","6","positive","negative","80","resourceful","left","true"
"html-keyboard-response","4","10176","0.0-2.0-0.1","1032","7","pre","3","morning","2026-04-15","2026-04-27","2026-04-17T17:02:23.465Z","Mozilla/5.0 (Linux; Android 16; Pixel 9 Pro Build/CP1A.260405.005; wv) AppleWebKit/537.36 (KHTML, like Gecko) Version/4.0 Chrome/146.0.7680.177 Mobile Safari/537.36","394","719","420","","null","<div style=""font-size:60px;"">+</div>","null","fixation","","","","","","","","","","","",""
"html-button-response","5","11916","0.0-2.0-1.1","1032","7","pre","3","morning","2026-04-15","2026-04-27","2026-04-17T17:02:23.465Z","Mozilla/5.0 (Linux; Android 16; Pixel 9 Pro Build/CP1A.260405.005; wv) AppleWebKit/537.36 (KHTML, like Gecko) Version/4.0 Chrome/146.0.7680.177 Mobile Safari/537.36","394","719","420","","1730","<div class=""prompt"" style=""font-size:24px; margin-bottom:20px;"">Which word describes you more?</div>","0","pairing","2","flawless","unlucky","PosNeg","7","60","positive","negative","53","flawless","left","true"
"html-keyboard-response","6","12720","0.0-2.0-0.2","1032","7","pre","3","morning","2026-04-15","2026-04-27","2026-04-17T17:02:23.465Z","Mozilla/5.0 (Linux; Android 16; Pixel 9 Pro Build/CP1A.260405.005; wv) AppleWebKit/537.36 (KHTML, like Gecko) Version/4.0 Chrome/146.0.7680.177 Mobile Safari/537.36","394","719","420","","null","<div style=""font-size:60px;"">+</div>","null","fixation","","","","","","","","","","","",""
"html-button-response","7","14213","0.0-2.0-1.2","1032","7","pre","3","morning","2026-04-15","2026-04-27","2026-04-17T17:02:23.465Z","Mozilla/5.0 (Linux; Android 16; Pixel 9 Pro Build/CP1A.260405.005; wv) AppleWebKit/537.36 (KHTML, like Gecko) Version/4.0 Chrome/146.0.7680.177 Mobile Safari/537.36","394","719","420","","1473","<div class=""prompt"" style=""font-size:24px; margin-bottom:20px;"">Which word describes you more?</div>","0","pairing","3","champion","failure","PosNeg","86","0","positive","negative","86","champion","left","true"
"html-keyboard-response","8","15018","0.0-2.0-0.3","1032","7","pre","3","morning","2026-04-15","2026-04-27","2026-04-17T17:02:23.465Z","Mozilla/5.0 (Linux; Android 16; Pixel 9 Pro Build/CP1A.260405.005; wv) AppleWebKit/537.36 (KHTML, like Gecko) Version/4.0 Chrome/146.0.7680.177 Mobile Safari/537.36","394","719","420","","null","<div style=""font-size:60px;"">+</div>","null","fixation","","","","","","","","","","","",""
"html-button-response","9","16659","0.0-2.0-1.3","1032","7","pre","3","morning","2026-04-15","2026-04-27","2026-04-17T17:02:23.465Z","Mozilla/5.0 (Linux; Android 16; Pixel 9 Pro Build/CP1A.260405.005; wv) AppleWebKit/537.36 (KHTML, like Gecko) Version/4.0 Chrome/146.0.7680.177 Mobile Safari/537.36","394","719","420","","1635","<div class=""prompt"" style=""font-size:24px; margin-bottom:20px;"">Which word describes you more?</div>","0","pairing","4","resourceful","pleased","PosPos","86","68","positive","positive","18","resourceful","left","true"
"html-keyboard-response","10","17463","0.0-2.0-0.4","1032","7","pre","3","morning","2026-04-15","2026-04-27","2026-04-17T17:02:23.465Z","Mozilla/5.0 (Linux; Android 16; Pixel 9 Pro Build/CP1A.260405.005; wv) AppleWebKit/537.36 (KHTML, like Gecko) Version/4.0 Chrome/146.0.7680.177 Mobile Safari/537.36","394","719","420","","null","<div style=""font-size:60px;"">+</div>","null","fixation","","","","","","","","","","","",""
"html-button-response","11","21054","0.0-2.0-1.4","1032","7","pre","3","morning","2026-04-15","2026-04-27","2026-04-17T17:02:23.465Z","Mozilla/5.0 (Linux; Android 16; Pixel 9 Pro Build/CP1A.260405.005; wv) AppleWebKit/537.36 (KHTML, like Gecko) Version/4.0 Chrome/146.0.7680.177 Mobile Safari/537.36","394","719","420","","3584","<div class=""prompt"" style=""font-size:24px; margin-bottom:20px;"">Which word describes you more?</div>","1","pairing","5","empty","honest","PosNeg","10","96","negative","positive","86","honest","right","true"
"html-keyboard-response","12","21857","0.0-2.0-0.5","1032","7","pre","3","morning","2026-04-15","2026-04-27","2026-04-17T17:02:23.465Z","Mozilla/5.0 (Linux; Android 16; Pixel 9 Pro Build/CP1A.260405.005; wv) AppleWebKit/537.36 (KHTML, like Gecko) Version/4.0 Chrome/146.0.7680.177 Mobile Safari/537.36","394","719","420","","null","<div style=""font-size:60px;"">+</div>","null","fixation","","","","","","","","","","","",""
"html-button-response","13","23368","0.0-2.0-1.5","1032","7","pre","3","morning","2026-04-15","2026-04-27","2026-04-17T17:02:23.465Z","Mozilla/5.0 (Linux; Android 16; Pixel 9 Pro Build/CP1A.260405.005; wv) AppleWebKit/537.36 (KHTML, like Gecko) Version/4.0 Chrome/146.0.7680.177 Mobile Safari/537.36","394","719","420","","1507","<div class=""prompt"" style=""font-size:24px; margin-bottom:20px;"">Which word describes you more?</div>","1","pairing","6","spontaneous","knowledgeable","PosPos","18","94","positive","positive","76","knowledgeable","right","true"
"html-keyboard-response","14","24173","0.0-2.0-0.6","1032","7","pre","3","morning","2026-04-15","2026-04-27","2026-04-17T17:02:23.465Z","Mozilla/5.0 (Linux; Android 16; Pixel 9 Pro Build/CP1A.260405.005; wv) AppleWebKit/537.36 (KHTML, like Gecko) Version/4.0 Chrome/146.0.7680.177 Mobile Safari/537.36","394","719","420","","null","<div style=""font-size:60px;"">+</div>","null","fixation","","","","","","","","","","","",""
"html-button-response","15","29184","0.0-2.0-1.6","1032","7","pre","3","morning","2026-04-15","2026-04-27","2026-04-17T17:02:23.465Z","Mozilla/5.0 (Linux; Android 16; Pixel 9 Pro Build/CP1A.260405.005; wv) AppleWebKit/537.36 (KHTML, like Gecko) Version/4.0 Chrome/146.0.7680.177 Mobile Safari/537.36","394","719","420","","null","<div class=""prompt"" style=""font-size:24px; margin-bottom:20px;"">Which word describes you more?</div>","null","pairing","7","parasite","immoral","NegNeg","0","4","negative","negative","4","null","null","false"
"html-keyboard-response","16","29990","0.0-2.0-0.7","1032","7","pre","3","morning","2026-04-15","2026-04-27","2026-04-17T17:02:23.465Z","Mozilla/5.0 (Linux; Android 16; Pixel 9 Pro Build/CP1A.260405.005; wv) AppleWebKit/537.36 (KHTML, like Gecko) Version/4.0 Chrome/146.0.7680.177 Mobile Safari/537.36","394","719","420","","null","<div style=""font-size:60px;"">+</div>","null","fixation","","","","","","","","","","","",""
"html-button-response","17","33954","0.0-2.0-1.7","1032","7","pre","3","morning","2026-04-15","2026-04-27","2026-04-17T17:02:23.465Z","Mozilla/5.0 (Linux; Android 16; Pixel 9 Pro Build/CP1A.260405.005; wv) AppleWebKit/537.36 (KHTML, like Gecko) Version/4.0 Chrome/146.0.7680.177 Mobile Safari/537.36","394","719","420","","3961","<div class=""prompt"" style=""font-size:24px; margin-bottom:20px;"">Which word describes you more?</div>","0","pairing","8","witty","degenerate","PosNeg","80","49","positive","negative","31","witty","left","true"
"html-keyboard-response","18","34759","0.0-2.0-0.8","1032","7","pre","3","morning","2026-04-15","2026-04-27","2026-04-17T17:02:23.465Z","Mozilla/5.0 (Linux; Android 16; Pixel 9 Pro Build/CP1A.260405.005; wv) AppleWebKit/537.36 (KHTML, like Gecko) Version/4.0 Chrome/146.0.7680.177 Mobile Safari/537.36","394","719","420","","null","<div style=""font-size:60px;"">+</div>","null","fixation","","","","","","","","","","","",""
"html-button-response","19","38166","0.0-2.0-1.8","1032","7","pre","3","morning","2026-04-15","2026-04-27","2026-04-17T17:02:23.465Z","Mozilla/5.0 (Linux; Android 16; Pixel 9 Pro Build/CP1A.260405.005; wv) AppleWebKit/537.36 (KHTML, like Gecko) Version/4.0 Chrome/146.0.7680.177 Mobile Safari/537.36","394","719","420","","3399","<div class=""prompt"" style=""font-size:24px; margin-bottom:20px;"">Which word describes you more?</div>","1","pairing","9","awful","uninvited","NegNeg","0","5","negative","negative","5","uninvited","right","true"
"html-keyboard-response","20","38969","0.0-2.0-0.9","1032","7","pre","3","morning","2026-04-15","2026-04-27","2026-04-17T17:02:23.465Z","Mozilla/5.0 (Linux; Android 16; Pixel 9 Pro Build/CP1A.260405.005; wv) AppleWebKit/537.36 (KHTML, like Gecko) Version/4.0 Chrome/146.0.7680.177 Mobile Safari/537.36","394","719","420","","null","<div style=""font-size:60px;"">+</div>","null","fixation","","","","","","","","","","","",""
"html-button-response","21","43344","0.0-2.0-1.9","1032","7","pre","3","morning","2026-04-15","2026-04-27","2026-04-17T17:02:23.465Z","Mozilla/5.0 (Linux; Android 16; Pixel 9 Pro Build/CP1A.260405.005; wv) AppleWebKit/537.36 (KHTML, like Gecko) Version/4.0 Chrome/146.0.7680.177 Mobile Safari/537.36","394","719","420","","4369","<div class=""prompt"" style=""font-size:24px; margin-bottom:20px;"">Which word describes you more?</div>","1","pairing","10","excited","virtuous","PosPos","27","63","positive","positive","36","virtuous","right","true"
"html-keyboard-response","22","44147","0.0-2.0-0.10","1032","7","pre","3","morning","2026-04-15","2026-04-27","2026-04-17T17:02:23.465Z","Mozilla/5.0 (Linux; Android 16; Pixel 9 Pro Build/CP1A.260405.005; wv) AppleWebKit/537.36 (KHTML, like Gecko) Version/4.0 Chrome/146.0.7680.177 Mobile Safari/537.36","394","719","420","","null","<div style=""font-size:60px;"">+</div>","null","fixation","","","","","","","","","","","",""
"html-button-response","23","47284","0.0-2.0-1.10","1032","7","pre","3","morning","2026-04-15","2026-04-27","2026-04-17T17:02:23.465Z","Mozilla/5.0 (Linux; Android 16; Pixel 9 Pro Build/CP1A.260405.005; wv) AppleWebKit/537.36 (KHTML, like Gecko) Version/4.0 Chrome/146.0.7680.177 Mobile Safari/537.36","394","719","420","","3132","<div class=""prompt"" style=""font-size:24px; margin-bottom:20px;"">Which word describes you more?</div>","1","pairing","11","hater","easygoing","PosNeg","10","43","negative","positive","33","easygoing","right","true"
"html-keyboard-response","24","48087","0.0-2.0-0.11","1032","7","pre","3","morning","2026-04-15","2026-04-27","2026-04-17T17:02:23.465Z","Mozilla/5.0 (Linux; Android 16; Pixel 9 Pro Build/CP1A.260405.005; wv) AppleWebKit/537.36 (KHTML, like Gecko) Version/4.0 Chrome/146.0.7680.177 Mobile Safari/537.36","394","719","420","","null","<div style=""font-size:60px;"">+</div>","null","fixation","","","","","","","","","","","",""
"html-button-response","25","51028","0.0-2.0-1.11","1032","7","pre","3","morning","2026-04-15","2026-04-27","2026-04-17T17:02:23.465Z","Mozilla/5.0 (Linux; Android 16; Pixel 9 Pro Build/CP1A.260405.005; wv) AppleWebKit/537.36 (KHTML, like Gecko) Version/4.0 Chrome/146.0.7680.177 Mobile Safari/537.36","394","719","420","","2936","<div class=""prompt"" style=""font-size:24px; margin-bottom:20px;"">Which word describes you more?</div>","0","pairing","12","creep","jealous","NegNeg","8","0","negative","negative","8","creep","left","true"
"html-keyboard-response","26","51832","0.0-2.0-0.12","1032","7","pre","3","morning","2026-04-15","2026-04-27","2026-04-17T17:02:23.465Z","Mozilla/5.0 (Linux; Android 16; Pixel 9 Pro Build/CP1A.260405.005; wv) AppleWebKit/537.36 (KHTML, like Gecko) Version/4.0 Chrome/146.0.7680.177 Mobile Safari/537.36","394","719","420","","null","<div style=""font-size:60px;"">+</div>","null","fixation","","","","","","","","","","","",""
"html-button-response","27","55587","0.0-2.0-1.12","1032","7","pre","3","morning","2026-04-15","2026-04-27","2026-04-17T17:02:23.465Z","Mozilla/5.0 (Linux; Android 16; Pixel 9 Pro Build/CP1A.260405.005; wv) AppleWebKit/537.36 (KHTML, like Gecko) Version/4.0 Chrome/146.0.7680.177 Mobile Safari/537.36","394","719","420","","3748","<div class=""prompt"" style=""font-size:24px; margin-bottom:20px;"">Which word describes you more?</div>","0","pairing","13","awkward","fraud","NegNeg","60","2","negative","negative","58","awkward","left","true"
"html-keyboard-response","28","56391","0.0-2.0-0.13","1032","7","pre","3","morning","2026-04-15","2026-04-27","2026-04-17T17:02:23.465Z","Mozilla/5.0 (Linux; Android 16; Pixel 9 Pro Build/CP1A.260405.005; wv) AppleWebKit/537.36 (KHTML, like Gecko) Version/4.0 Chrome/146.0.7680.177 Mobile Safari/537.36","394","719","420","","null","<div style=""font-size:60px;"">+</div>","null","fixation","","","","","","","","","","","",""
"html-button-response","29","57644","0.0-2.0-1.13","1032","7","pre","3","morning","2026-04-15","2026-04-27","2026-04-17T17:02:23.465Z","Mozilla/5.0 (Linux; Android 16; Pixel 9 Pro Build/CP1A.260405.005; wv) AppleWebKit/537.36 (KHTML, like Gecko) Version/4.0 Chrome/146.0.7680.177 Mobile Safari/537.36","394","719","420","","1247","<div class=""prompt"" style=""font-size:24px; margin-bottom:20px;"">Which word describes you more?</div>","0","pairing","14","talented","excited","PosPos","96","27","positive","positive","69","talented","left","true"
"html-keyboard-response","30","58447","0.0-2.0-0.14","1032","7","pre","3","morning","2026-04-15","2026-04-27","2026-04-17T17:02:23.465Z","Mozilla/5.0 (Linux; Android 16; Pixel 9 Pro Build/CP1A.260405.005; wv) AppleWebKit/537.36 (KHTML, like Gecko) Version/4.0 Chrome/146.0.7680.177 Mobile Safari/537.36","394","719","420","","null","<div style=""font-size:60px;"">+</div>","null","fixation","","","","","","","","","","","",""
"html-button-response","31","61168","0.0-2.0-1.14","1032","7","pre","3","morning","2026-04-15","2026-04-27","2026-04-17T17:02:23.465Z","Mozilla/5.0 (Linux; Android 16; Pixel 9 Pro Build/CP1A.260405.005; wv) AppleWebKit/537.36 (KHTML, like Gecko) Version/4.0 Chrome/146.0.7680.177 Mobile Safari/537.36","394","719","420","","2715","<div class=""prompt"" style=""font-size:24px; margin-bottom:20px;"">Which word describes you more?</div>","0","pairing","15","healthy","smiley","PosPos","100","50","positive","positive","50","healthy","left","true"
"html-keyboard-response","32","61972","0.0-2.0-0.15","1032","7","pre","3","morning","2026-04-15","2026-04-27","2026-04-17T17:02:23.465Z","Mozilla/5.0 (Linux; Android 16; Pixel 9 Pro Build/CP1A.260405.005; wv) AppleWebKit/537.36 (KHTML, like Gecko) Version/4.0 Chrome/146.0.7680.177 Mobile Safari/537.36","394","719","420","","null","<div style=""font-size:60px;"">+</div>","null","fixation","","","","","","","","","","","",""
"html-button-response","33","65723","0.0-2.0-1.15","1032","7","pre","3","morning","2026-04-15","2026-04-27","2026-04-17T17:02:23.465Z","Mozilla/5.0 (Linux; Android 16; Pixel 9 Pro Build/CP1A.260405.005; wv) AppleWebKit/537.36 (KHTML, like Gecko) Version/4.0 Chrome/146.0.7680.177 Mobile Safari/537.36","394","719","420","","3748","<div class=""prompt"" style=""font-size:24px; margin-bottom:20px;"">Which word describes you more?</div>","1","pairing","16","anxious","spontaneous","PosNeg","29","18","negative","positive","11","spontaneous","right","true"
"html-keyboard-response","34","66526","0.0-2.0-0.16","1032","7","pre","3","morning","2026-04-15","2026-04-27","2026-04-17T17:02:23.465Z","Mozilla/5.0 (Linux; Android 16; Pixel 9 Pro Build/CP1A.260405.005; wv) AppleWebKit/537.36 (KHTML, like Gecko) Version/4.0 Chrome/146.0.7680.177 Mobile Safari/537.36","394","719","420","","null","<div style=""font-size:60px;"">+</div>","null","fixation","","","","","","","","","","","",""
"html-button-response","35","70373","0.0-2.0-1.16","1032","7","pre","3","morning","2026-04-15","2026-04-27","2026-04-17T17:02:23.465Z","Mozilla/5.0 (Linux; Android 16; Pixel 9 Pro Build/CP1A.260405.005; wv) AppleWebKit/537.36 (KHTML, like Gecko) Version/4.0 Chrome/146.0.7680.177 Mobile Safari/537.36","394","719","420","","3838","<div class=""prompt"" style=""font-size:24px; margin-bottom:20px;"">Which word describes you more?</div>","1","pairing","17","defective","parasite","NegNeg","0","0","negative","negative","0","parasite","right","true"
"html-keyboard-response","36","71176","0.0-2.0-0.17","1032","7","pre","3","morning","2026-04-15","2026-04-27","2026-04-17T17:02:23.465Z","Mozilla/5.0 (Linux; Android 16; Pixel 9 Pro Build/CP1A.260405.005; wv) AppleWebKit/537.36 (KHTML, like Gecko) Version/4.0 Chrome/146.0.7680.177 Mobile Safari/537.36","394","719","420","","null","<div style=""font-size:60px;"">+</div>","null","fixation","","","","","","","","","","","",""
"html-button-response","37","73246","0.0-2.0-1.17","1032","7","pre","3","morning","2026-04-15","2026-04-27","2026-04-17T17:02:23.465Z","Mozilla/5.0 (Linux; Android 16; Pixel 9 Pro Build/CP1A.260405.005; wv) AppleWebKit/537.36 (KHTML, like Gecko) Version/4.0 Chrome/146.0.7680.177 Mobile Safari/537.36","394","719","420","","2063","<div class=""prompt"" style=""font-size:24px; margin-bottom:20px;"">Which word describes you more?</div>","1","pairing","18","degenerate","flawless","PosNeg","49","7","negative","positive","42","flawless","right","true"
"html-keyboard-response","38","74049","0.0-2.0-0.18","1032","7","pre","3","morning","2026-04-15","2026-04-27","2026-04-17T17:02:23.465Z","Mozilla/5.0 (Linux; Android 16; Pixel 9 Pro Build/CP1A.260405.005; wv) AppleWebKit/537.36 (KHTML, like Gecko) Version/4.0 Chrome/146.0.7680.177 Mobile Safari/537.36","394","719","420","","null","<div style=""font-size:60px;"">+</div>","null","fixation","","","","","","","","","","","",""
"html-button-response","39","76728","0.0-2.0-1.18","1032","7","pre","3","morning","2026-04-15","2026-04-27","2026-04-17T17:02:23.465Z","Mozilla/5.0 (Linux; Android 16; Pixel 9 Pro Build/CP1A.260405.005; wv) AppleWebKit/537.36 (KHTML, like Gecko) Version/4.0 Chrome/146.0.7680.177 Mobile Safari/537.36","394","719","420","","2672","<div class=""prompt"" style=""font-size:24px; margin-bottom:20px;"">Which word describes you more?</div>","0","pairing","19","tolerant","dull","PosNeg","55","6","positive","negative","49","tolerant","left","true"
"html-keyboard-response","40","77532","0.0-2.0-0.19","1032","7","pre","3","morning","2026-04-15","2026-04-27","2026-04-17T17:02:23.465Z","Mozilla/5.0 (Linux; Android 16; Pixel 9 Pro Build/CP1A.260405.005; wv) AppleWebKit/537.36 (KHTML, like Gecko) Version/4.0 Chrome/146.0.7680.177 Mobile Safari/537.36","394","719","420","","null","<div style=""font-size:60px;"">+</div>","null","fixation","","","","","","","","","","","",""
"html-button-response","41","79619","0.0-2.0-1.19","1032","7","pre","3","morning","2026-04-15","2026-04-27","2026-04-17T17:02:23.465Z","Mozilla/5.0 (Linux; Android 16; Pixel 9 Pro Build/CP1A.260405.005; wv) AppleWebKit/537.36 (KHTML, like Gecko) Version/4.0 Chrome/146.0.7680.177 Mobile Safari/537.36","394","719","420","","2080","<div class=""prompt"" style=""font-size:24px; margin-bottom:20px;"">Which word describes you more?</div>","1","pairing","20","spectacular","asset","PosPos","80","100","positive","positive","20","asset","right","true"
"html-keyboard-response","42","80422","0.0-2.0-0.20","1032","7","pre","3","morning","2026-04-15","2026-04-27","2026-04-17T17:02:23.465Z","Mozilla/5.0 (Linux; Android 16; Pixel 9 Pro Build/CP1A.260405.005; wv) AppleWebKit/537.36 (KHTML, like Gecko) Version/4.0 Chrome/146.0.7680.177 Mobile Safari/537.36","394","719","420","","null","<div style=""font-size:60px;"">+</div>","null","fixation","","","","","","","","","","","",""
"html-button-response","43","82270","0.0-2.0-1.20","1032","7","pre","3","morning","2026-04-15","2026-04-27","2026-04-17T17:02:23.465Z","Mozilla/5.0 (Linux; Android 16; Pixel 9 Pro Build/CP1A.260405.005; wv) AppleWebKit/537.36 (KHTML, like Gecko) Version/4.0 Chrome/146.0.7680.177 Mobile Safari/537.36","394","719","420","","1842","<div class=""prompt"" style=""font-size:24px; margin-bottom:20px;"">Which word describes you more?</div>","0","pairing","21","excited","anxious","PosNeg","27","29","positive","negative","2","excited","left","true"
"html-keyboard-response","44","83073","0.0-2.0-0.21","1032","7","pre","3","morning","2026-04-15","2026-04-27","2026-04-17T17:02:23.465Z","Mozilla/5.0 (Linux; Android 16; Pixel 9 Pro Build/CP1A.260405.005; wv) AppleWebKit/537.36 (KHTML, like Gecko) Version/4.0 Chrome/146.0.7680.177 Mobile Safari/537.36","394","719","420","","null","<div style=""font-size:60px;"">+</div>","null","fixation","","","","","","","","","","","",""
"html-button-response","45","87769","0.0-2.0-1.21","1032","7","pre","3","morning","2026-04-15","2026-04-27","2026-04-17T17:02:23.465Z","Mozilla/5.0 (Linux; Android 16; Pixel 9 Pro Build/CP1A.260405.005; wv) AppleWebKit/537.36 (KHTML, like Gecko) Version/4.0 Chrome/146.0.7680.177 Mobile Safari/537.36","394","719","420","","4693","<div class=""prompt"" style=""font-size:24px; margin-bottom:20px;"">Which word describes you more?</div>","1","pairing","22","gloomy","satisfied","PosNeg","12","50","negative","positive","38","satisfied","right","true"
"html-keyboard-response","46","88572","0.0-2.0-0.22","1032","7","pre","3","morning","2026-04-15","2026-04-27","2026-04-17T17:02:23.465Z","Mozilla/5.0 (Linux; Android 16; Pixel 9 Pro Build/CP1A.260405.005; wv) AppleWebKit/537.36 (KHTML, like Gecko) Version/4.0 Chrome/146.0.7680.177 Mobile Safari/537.36","394","719","420","","null","<div style=""font-size:60px;"">+</div>","null","fixation","","","","","","","","","","","",""
"html-button-response","47","90311","0.0-2.0-1.22","1032","7","pre","3","morning","2026-04-15","2026-04-27","2026-04-17T17:02:23.465Z","Mozilla/5.0 (Linux; Android 16; Pixel 9 Pro Build/CP1A.260405.005; wv) AppleWebKit/537.36 (KHTML, like Gecko) Version/4.0 Chrome/146.0.7680.177 Mobile Safari/537.36","394","719","420","","1733","<div class=""prompt"" style=""font-size:24px; margin-bottom:20px;"">Which word describes you more?</div>","0","pairing","23","proficient","violent","PosNeg","96","2","positive","negative","94","proficient","left","true"
"html-keyboard-response","48","91115","0.0-2.0-0.23","1032","7","pre","3","morning","2026-04-15","2026-04-27","2026-04-17T17:02:23.465Z","Mozilla/5.0 (Linux; Android 16; Pixel 9 Pro Build/CP1A.260405.005; wv) AppleWebKit/537.36 (KHTML, like Gecko) Version/4.0 Chrome/146.0.7680.177 Mobile Safari/537.36","394","719","420","","null","<div style=""font-size:60px;"">+</div>","null","fixation","","","","","","","","","","","",""
"html-button-response","49","93895","0.0-2.0-1.23","1032","7","pre","3","morning","2026-04-15","2026-04-27","2026-04-17T17:02:23.465Z","Mozilla/5.0 (Linux; Android 16; Pixel 9 Pro Build/CP1A.260405.005; wv) AppleWebKit/537.36 (KHTML, like Gecko) Version/4.0 Chrome/146.0.7680.177 Mobile Safari/537.36","394","719","420","","2772","<div class=""prompt"" style=""font-size:24px; margin-bottom:20px;"">Which word describes you more?</div>","1","pairing","24","malicious","awkward","NegNeg","0","60","negative","negative","60","awkward","right","true"
"instructions","50","95153","0.0-3.0","1032","7","pre","3","morning","2026-04-15","2026-04-27","2026-04-17T17:02:23.465Z","Mozilla/5.0 (Linux; Android 16; Pixel 9 Pro Build/CP1A.260405.005; wv) AppleWebKit/537.36 (KHTML, like Gecko) Version/4.0 Chrome/146.0.7680.177 Mobile Safari/537.36","394","719","420","[{""page_index"":0,""viewing_time"":1255}]","1256","","","","","","","","","","","","","","",""
