"trial_type","trial_index","time_elapsed","internal_node_id","PUNS_ID","session_number","session_phase","session_day","session_slot","ema_start_date","ema_post_start_date","experiment_start","browser","screen_width","screen_height","timezone_offset","view_history","rt","stimulus","response","which_experiment_phase","trial_number","left_word","right_word","valence","left_base_rating","right_base_rating","left_valence","right_valence","abs_diff","participant_response","chosen_side","valid_response"
"pavlovia","0","863","0.0-0.0","1015","26","pre","9","afternoon","2026-04-07","2026-04-19","2026-04-15T19:38:26.336Z","Mozilla/5.0 (Linux; Android 14; Pixel 4a (5G) Build/UP1A.231105.001.B2; wv) AppleWebKit/537.36 (KHTML, like Gecko) Version/4.0 Chrome/146.0.7680.177 Mobile Safari/537.36","379","674","240","","","","","","","","","","","","","","","","",""
"instructions","1","2979","0.0-1.0","1015","26","pre","9","afternoon","2026-04-07","2026-04-19","2026-04-15T19:38:26.336Z","Mozilla/5.0 (Linux; Android 14; Pixel 4a (5G) Build/UP1A.231105.001.B2; wv) AppleWebKit/537.36 (KHTML, like Gecko) Version/4.0 Chrome/146.0.7680.177 Mobile Safari/537.36","379","674","240","[{""page_index"":0,""viewing_time"":616},{""page_index"":1,""viewing_time"":412},{""page_index"":2,""viewing_time"":572},{""page_index"":3,""viewing_time"":515}]","2115","","","","","","","","","","","","","","",""
"html-keyboard-response","2","3783","0.0-2.0-0.0","1015","26","pre","9","afternoon","2026-04-07","2026-04-19","2026-04-15T19:38:26.336Z","Mozilla/5.0 (Linux; Android 14; Pixel 4a (5G) Build/UP1A.231105.001.B2; wv) AppleWebKit/537.36 (KHTML, like Gecko) Version/4.0 Chrome/146.0.7680.177 Mobile Safari/537.36","379","674","240","","null","<div style=""font-size:60px;"">+</div>","null","fixation","","","","","","","","","","","",""
"html-button-response","3","4785","0.0-2.0-1.0","1015","26","pre","9","afternoon","2026-04-07","2026-04-19","2026-04-15T19:38:26.336Z","Mozilla/5.0 (Linux; Android 14; Pixel 4a (5G) Build/UP1A.231105.001.B2; wv) AppleWebKit/537.36 (KHTML, like Gecko) Version/4.0 Chrome/146.0.7680.177 Mobile Safari/537.36","379","674","240","","998","<div class=""prompt"" style=""font-size:24px; margin-bottom:20px;"">Which word describes you more?</div>","0","pairing","1","alluring","deceitful","PosNeg","23","0","positive","negative","23","alluring","left","true"
"html-keyboard-response","4","5588","0.0-2.0-0.1","1015","26","pre","9","afternoon","2026-04-07","2026-04-19","2026-04-15T19:38:26.336Z","Mozilla/5.0 (Linux; Android 14; Pixel 4a (5G) Build/UP1A.231105.001.B2; wv) AppleWebKit/537.36 (KHTML, like Gecko) Version/4.0 Chrome/146.0.7680.177 Mobile Safari/537.36","379","674","240","","null","<div style=""font-size:60px;"">+</div>","null","fixation","","","","","","","","","","","",""
"html-button-response","5","6726","0.0-2.0-1.1","1015","26","pre","9","afternoon","2026-04-07","2026-04-19","2026-04-15T19:38:26.336Z","Mozilla/5.0 (Linux; Android 14; Pixel 4a (5G) Build/UP1A.231105.001.B2; wv) AppleWebKit/537.36 (KHTML, like Gecko) Version/4.0 Chrome/146.0.7680.177 Mobile Safari/537.36","379","674","240","","1136","<div class=""prompt"" style=""font-size:24px; margin-bottom:20px;"">Which word describes you more?</div>","1","pairing","2","adorable","alone","PosNeg","0","100","positive","negative","100","alone","right","true"
"html-keyboard-response","6","7528","0.0-2.0-0.2","1015","26","pre","9","afternoon","2026-04-07","2026-04-19","2026-04-15T19:38:26.336Z","Mozilla/5.0 (Linux; Android 14; Pixel 4a (5G) Build/UP1A.231105.001.B2; wv) AppleWebKit/537.36 (KHTML, like Gecko) Version/4.0 Chrome/146.0.7680.177 Mobile Safari/537.36","379","674","240","","null","<div style=""font-size:60px;"">+</div>","null","fixation","","","","","","","","","","","",""
"html-button-response","7","9184","0.0-2.0-1.2","1015","26","pre","9","afternoon","2026-04-07","2026-04-19","2026-04-15T19:38:26.336Z","Mozilla/5.0 (Linux; Android 14; Pixel 4a (5G) Build/UP1A.231105.001.B2; wv) AppleWebKit/537.36 (KHTML, like Gecko) Version/4.0 Chrome/146.0.7680.177 Mobile Safari/537.36","379","674","240","","1652","<div class=""prompt"" style=""font-size:24px; margin-bottom:20px;"">Which word describes you more?</div>","1","pairing","3","menace","hesitant","NegNeg","0","50","negative","negative","50","hesitant","right","true"
"html-keyboard-response","8","9986","0.0-2.0-0.3","1015","26","pre","9","afternoon","2026-04-07","2026-04-19","2026-04-15T19:38:26.336Z","Mozilla/5.0 (Linux; Android 14; Pixel 4a (5G) Build/UP1A.231105.001.B2; wv) AppleWebKit/537.36 (KHTML, like Gecko) Version/4.0 Chrome/146.0.7680.177 Mobile Safari/537.36","379","674","240","","null","<div style=""font-size:60px;"">+</div>","null","fixation","","","","","","","","","","","",""
"html-button-response","9","14989","0.0-2.0-1.3","1015","26","pre","9","afternoon","2026-04-07","2026-04-19","2026-04-15T19:38:26.336Z","Mozilla/5.0 (Linux; Android 14; Pixel 4a (5G) Build/UP1A.231105.001.B2; wv) AppleWebKit/537.36 (KHTML, like Gecko) Version/4.0 Chrome/146.0.7680.177 Mobile Safari/537.36","379","674","240","","null","<div class=""prompt"" style=""font-size:24px; margin-bottom:20px;"">Which word describes you more?</div>","null","pairing","4","uninvited","terrible","NegNeg","50","0","negative","negative","50","null","null","false"
"html-keyboard-response","10","15795","0.0-2.0-0.4","1015","26","pre","9","afternoon","2026-04-07","2026-04-19","2026-04-15T19:38:26.336Z","Mozilla/5.0 (Linux; Android 14; Pixel 4a (5G) Build/UP1A.231105.001.B2; wv) AppleWebKit/537.36 (KHTML, like Gecko) Version/4.0 Chrome/146.0.7680.177 Mobile Safari/537.36","379","674","240","","null","<div style=""font-size:60px;"">+</div>","null","fixation","","","","","","","","","","","",""
"html-button-response","11","16741","0.0-2.0-1.4","1015","26","pre","9","afternoon","2026-04-07","2026-04-19","2026-04-15T19:38:26.336Z","Mozilla/5.0 (Linux; Android 14; Pixel 4a (5G) Build/UP1A.231105.001.B2; wv) AppleWebKit/537.36 (KHTML, like Gecko) Version/4.0 Chrome/146.0.7680.177 Mobile Safari/537.36","379","674","240","","942","<div class=""prompt"" style=""font-size:24px; margin-bottom:20px;"">Which word describes you more?</div>","0","pairing","5","awkward","unlucky","NegNeg","69","64","negative","negative","5","awkward","left","true"
"html-keyboard-response","12","17543","0.0-2.0-0.5","1015","26","pre","9","afternoon","2026-04-07","2026-04-19","2026-04-15T19:38:26.336Z","Mozilla/5.0 (Linux; Android 14; Pixel 4a (5G) Build/UP1A.231105.001.B2; wv) AppleWebKit/537.36 (KHTML, like Gecko) Version/4.0 Chrome/146.0.7680.177 Mobile Safari/537.36","379","674","240","","null","<div style=""font-size:60px;"">+</div>","null","fixation","","","","","","","","","","","",""
"html-button-response","13","18530","0.0-2.0-1.5","1015","26","pre","9","afternoon","2026-04-07","2026-04-19","2026-04-15T19:38:26.336Z","Mozilla/5.0 (Linux; Android 14; Pixel 4a (5G) Build/UP1A.231105.001.B2; wv) AppleWebKit/537.36 (KHTML, like Gecko) Version/4.0 Chrome/146.0.7680.177 Mobile Safari/537.36","379","674","240","","984","<div class=""prompt"" style=""font-size:24px; margin-bottom:20px;"">Which word describes you more?</div>","0","pairing","6","visionary","sadistic","PosNeg","100","0","positive","negative","100","visionary","left","true"
"html-keyboard-response","14","19333","0.0-2.0-0.6","1015","26","pre","9","afternoon","2026-04-07","2026-04-19","2026-04-15T19:38:26.336Z","Mozilla/5.0 (Linux; Android 14; Pixel 4a (5G) Build/UP1A.231105.001.B2; wv) AppleWebKit/537.36 (KHTML, like Gecko) Version/4.0 Chrome/146.0.7680.177 Mobile Safari/537.36","379","674","240","","null","<div style=""font-size:60px;"">+</div>","null","fixation","","","","","","","","","","","",""
"html-button-response","15","20480","0.0-2.0-1.6","1015","26","pre","9","afternoon","2026-04-07","2026-04-19","2026-04-15T19:38:26.336Z","Mozilla/5.0 (Linux; Android 14; Pixel 4a (5G) Build/UP1A.231105.001.B2; wv) AppleWebKit/537.36 (KHTML, like Gecko) Version/4.0 Chrome/146.0.7680.177 Mobile Safari/537.36","379","674","240","","1141","<div class=""prompt"" style=""font-size:24px; margin-bottom:20px;"">Which word describes you more?</div>","1","pairing","7","hesitant","respectable","PosNeg","50","100","negative","positive","50","respectable","right","true"
"html-keyboard-response","16","21282","0.0-2.0-0.7","1015","26","pre","9","afternoon","2026-04-07","2026-04-19","2026-04-15T19:38:26.336Z","Mozilla/5.0 (Linux; Android 14; Pixel 4a (5G) Build/UP1A.231105.001.B2; wv) AppleWebKit/537.36 (KHTML, like Gecko) Version/4.0 Chrome/146.0.7680.177 Mobile Safari/537.36","379","674","240","","null","<div style=""font-size:60px;"">+</div>","null","fixation","","","","","","","","","","","",""
"html-button-response","17","22112","0.0-2.0-1.7","1015","26","pre","9","afternoon","2026-04-07","2026-04-19","2026-04-15T19:38:26.336Z","Mozilla/5.0 (Linux; Android 14; Pixel 4a (5G) Build/UP1A.231105.001.B2; wv) AppleWebKit/537.36 (KHTML, like Gecko) Version/4.0 Chrome/146.0.7680.177 Mobile Safari/537.36","379","674","240","","826","<div class=""prompt"" style=""font-size:24px; margin-bottom:20px;"">Which word describes you more?</div>","0","pairing","8","learner","spontaneous","PosPos","100","51","positive","positive","49","learner","left","true"
"html-keyboard-response","18","22914","0.0-2.0-0.8","1015","26","pre","9","afternoon","2026-04-07","2026-04-19","2026-04-15T19:38:26.336Z","Mozilla/5.0 (Linux; Android 14; Pixel 4a (5G) Build/UP1A.231105.001.B2; wv) AppleWebKit/537.36 (KHTML, like Gecko) Version/4.0 Chrome/146.0.7680.177 Mobile Safari/537.36","379","674","240","","null","<div style=""font-size:60px;"">+</div>","null","fixation","","","","","","","","","","","",""
"html-button-response","19","24014","0.0-2.0-1.8","1015","26","pre","9","afternoon","2026-04-07","2026-04-19","2026-04-15T19:38:26.336Z","Mozilla/5.0 (Linux; Android 14; Pixel 4a (5G) Build/UP1A.231105.001.B2; wv) AppleWebKit/537.36 (KHTML, like Gecko) Version/4.0 Chrome/146.0.7680.177 Mobile Safari/537.36","379","674","240","","1096","<div class=""prompt"" style=""font-size:24px; margin-bottom:20px;"">Which word describes you more?</div>","1","pairing","9","spontaneous","asset","PosPos","51","100","positive","positive","49","asset","right","true"
"html-keyboard-response","20","24816","0.0-2.0-0.9","1015","26","pre","9","afternoon","2026-04-07","2026-04-19","2026-04-15T19:38:26.336Z","Mozilla/5.0 (Linux; Android 14; Pixel 4a (5G) Build/UP1A.231105.001.B2; wv) AppleWebKit/537.36 (KHTML, like Gecko) Version/4.0 Chrome/146.0.7680.177 Mobile Safari/537.36","379","674","240","","null","<div style=""font-size:60px;"">+</div>","null","fixation","","","","","","","","","","","",""
"html-button-response","21","26105","0.0-2.0-1.9","1015","26","pre","9","afternoon","2026-04-07","2026-04-19","2026-04-15T19:38:26.336Z","Mozilla/5.0 (Linux; Android 14; Pixel 4a (5G) Build/UP1A.231105.001.B2; wv) AppleWebKit/537.36 (KHTML, like Gecko) Version/4.0 Chrome/146.0.7680.177 Mobile Safari/537.36","379","674","240","","1287","<div class=""prompt"" style=""font-size:24px; margin-bottom:20px;"">Which word describes you more?</div>","1","pairing","10","repulsive","alluring","PosNeg","0","23","negative","positive","23","alluring","right","true"
"html-keyboard-response","22","26907","0.0-2.0-0.10","1015","26","pre","9","afternoon","2026-04-07","2026-04-19","2026-04-15T19:38:26.336Z","Mozilla/5.0 (Linux; Android 14; Pixel 4a (5G) Build/UP1A.231105.001.B2; wv) AppleWebKit/537.36 (KHTML, like Gecko) Version/4.0 Chrome/146.0.7680.177 Mobile Safari/537.36","379","674","240","","null","<div style=""font-size:60px;"">+</div>","null","fixation","","","","","","","","","","","",""
"html-button-response","23","28050","0.0-2.0-1.10","1015","26","pre","9","afternoon","2026-04-07","2026-04-19","2026-04-15T19:38:26.336Z","Mozilla/5.0 (Linux; Android 14; Pixel 4a (5G) Build/UP1A.231105.001.B2; wv) AppleWebKit/537.36 (KHTML, like Gecko) Version/4.0 Chrome/146.0.7680.177 Mobile Safari/537.36","379","674","240","","1138","<div class=""prompt"" style=""font-size:24px; margin-bottom:20px;"">Which word describes you more?</div>","0","pairing","11","tolerant","hesitant","PosNeg","100","50","positive","negative","50","tolerant","left","true"
"html-keyboard-response","24","28853","0.0-2.0-0.11","1015","26","pre","9","afternoon","2026-04-07","2026-04-19","2026-04-15T19:38:26.336Z","Mozilla/5.0 (Linux; Android 14; Pixel 4a (5G) Build/UP1A.231105.001.B2; wv) AppleWebKit/537.36 (KHTML, like Gecko) Version/4.0 Chrome/146.0.7680.177 Mobile Safari/537.36","379","674","240","","null","<div style=""font-size:60px;"">+</div>","null","fixation","","","","","","","","","","","",""
"html-button-response","25","30020","0.0-2.0-1.11","1015","26","pre","9","afternoon","2026-04-07","2026-04-19","2026-04-15T19:38:26.336Z","Mozilla/5.0 (Linux; Android 14; Pixel 4a (5G) Build/UP1A.231105.001.B2; wv) AppleWebKit/537.36 (KHTML, like Gecko) Version/4.0 Chrome/146.0.7680.177 Mobile Safari/537.36","379","674","240","","1164","<div class=""prompt"" style=""font-size:24px; margin-bottom:20px;"">Which word describes you more?</div>","1","pairing","12","witty","achiever","PosPos","80","100","positive","positive","20","achiever","right","true"
"html-keyboard-response","26","30821","0.0-2.0-0.12","1015","26","pre","9","afternoon","2026-04-07","2026-04-19","2026-04-15T19:38:26.336Z","Mozilla/5.0 (Linux; Android 14; Pixel 4a (5G) Build/UP1A.231105.001.B2; wv) AppleWebKit/537.36 (KHTML, like Gecko) Version/4.0 Chrome/146.0.7680.177 Mobile Safari/537.36","379","674","240","","null","<div style=""font-size:60px;"">+</div>","null","fixation","","","","","","","","","","","",""
"html-button-response","27","32113","0.0-2.0-1.12","1015","26","pre","9","afternoon","2026-04-07","2026-04-19","2026-04-15T19:38:26.336Z","Mozilla/5.0 (Linux; Android 14; Pixel 4a (5G) Build/UP1A.231105.001.B2; wv) AppleWebKit/537.36 (KHTML, like Gecko) Version/4.0 Chrome/146.0.7680.177 Mobile Safari/537.36","379","674","240","","1289","<div class=""prompt"" style=""font-size:24px; margin-bottom:20px;"">Which word describes you more?</div>","1","pairing","13","problematic","headache","NegNeg","48","50","negative","negative","2","headache","right","true"
"html-keyboard-response","28","32916","0.0-2.0-0.13","1015","26","pre","9","afternoon","2026-04-07","2026-04-19","2026-04-15T19:38:26.336Z","Mozilla/5.0 (Linux; Android 14; Pixel 4a (5G) Build/UP1A.231105.001.B2; wv) AppleWebKit/537.36 (KHTML, like Gecko) Version/4.0 Chrome/146.0.7680.177 Mobile Safari/537.36","379","674","240","","null","<div style=""font-size:60px;"">+</div>","null","fixation","","","","","","","","","","","",""
"html-button-response","29","35632","0.0-2.0-1.13","1015","26","pre","9","afternoon","2026-04-07","2026-04-19","2026-04-15T19:38:26.336Z","Mozilla/5.0 (Linux; Android 14; Pixel 4a (5G) Build/UP1A.231105.001.B2; wv) AppleWebKit/537.36 (KHTML, like Gecko) Version/4.0 Chrome/146.0.7680.177 Mobile Safari/537.36","379","674","240","","2713","<div class=""prompt"" style=""font-size:24px; margin-bottom:20px;"">Which word describes you more?</div>","0","pairing","14","alluring","irritating","PosNeg","23","49","positive","negative","26","alluring","left","true"
"html-keyboard-response","30","36435","0.0-2.0-0.14","1015","26","pre","9","afternoon","2026-04-07","2026-04-19","2026-04-15T19:38:26.336Z","Mozilla/5.0 (Linux; Android 14; Pixel 4a (5G) Build/UP1A.231105.001.B2; wv) AppleWebKit/537.36 (KHTML, like Gecko) Version/4.0 Chrome/146.0.7680.177 Mobile Safari/537.36","379","674","240","","null","<div style=""font-size:60px;"">+</div>","null","fixation","","","","","","","","","","","",""
"html-button-response","31","37689","0.0-2.0-1.14","1015","26","pre","9","afternoon","2026-04-07","2026-04-19","2026-04-15T19:38:26.336Z","Mozilla/5.0 (Linux; Android 14; Pixel 4a (5G) Build/UP1A.231105.001.B2; wv) AppleWebKit/537.36 (KHTML, like Gecko) Version/4.0 Chrome/146.0.7680.177 Mobile Safari/537.36","379","674","240","","1250","<div class=""prompt"" style=""font-size:24px; margin-bottom:20px;"">Which word describes you more?</div>","1","pairing","15","jerk","awkward","NegNeg","0","69","negative","negative","69","awkward","right","true"
"html-keyboard-response","32","38491","0.0-2.0-0.15","1015","26","pre","9","afternoon","2026-04-07","2026-04-19","2026-04-15T19:38:26.336Z","Mozilla/5.0 (Linux; Android 14; Pixel 4a (5G) Build/UP1A.231105.001.B2; wv) AppleWebKit/537.36 (KHTML, like Gecko) Version/4.0 Chrome/146.0.7680.177 Mobile Safari/537.36","379","674","240","","null","<div style=""font-size:60px;"">+</div>","null","fixation","","","","","","","","","","","",""
"html-button-response","33","39562","0.0-2.0-1.15","1015","26","pre","9","afternoon","2026-04-07","2026-04-19","2026-04-15T19:38:26.336Z","Mozilla/5.0 (Linux; Android 14; Pixel 4a (5G) Build/UP1A.231105.001.B2; wv) AppleWebKit/537.36 (KHTML, like Gecko) Version/4.0 Chrome/146.0.7680.177 Mobile Safari/537.36","379","674","240","","1067","<div class=""prompt"" style=""font-size:24px; margin-bottom:20px;"">Which word describes you more?</div>","1","pairing","16","boring","valued","PosNeg","100","0","negative","positive","100","valued","right","true"
"html-keyboard-response","34","40364","0.0-2.0-0.16","1015","26","pre","9","afternoon","2026-04-07","2026-04-19","2026-04-15T19:38:26.336Z","Mozilla/5.0 (Linux; Android 14; Pixel 4a (5G) Build/UP1A.231105.001.B2; wv) AppleWebKit/537.36 (KHTML, like Gecko) Version/4.0 Chrome/146.0.7680.177 Mobile Safari/537.36","379","674","240","","null","<div style=""font-size:60px;"">+</div>","null","fixation","","","","","","","","","","","",""
"html-button-response","35","41510","0.0-2.0-1.16","1015","26","pre","9","afternoon","2026-04-07","2026-04-19","2026-04-15T19:38:26.336Z","Mozilla/5.0 (Linux; Android 14; Pixel 4a (5G) Build/UP1A.231105.001.B2; wv) AppleWebKit/537.36 (KHTML, like Gecko) Version/4.0 Chrome/146.0.7680.177 Mobile Safari/537.36","379","674","240","","1144","<div class=""prompt"" style=""font-size:24px; margin-bottom:20px;"">Which word describes you more?</div>","1","pairing","17","adorable","adventurous","PosPos","0","100","positive","positive","100","adventurous","right","true"
"html-keyboard-response","36","42312","0.0-2.0-0.17","1015","26","pre","9","afternoon","2026-04-07","2026-04-19","2026-04-15T19:38:26.336Z","Mozilla/5.0 (Linux; Android 14; Pixel 4a (5G) Build/UP1A.231105.001.B2; wv) AppleWebKit/537.36 (KHTML, like Gecko) Version/4.0 Chrome/146.0.7680.177 Mobile Safari/537.36","379","674","240","","null","<div style=""font-size:60px;"">+</div>","null","fixation","","","","","","","","","","","",""
"html-button-response","37","44493","0.0-2.0-1.17","1015","26","pre","9","afternoon","2026-04-07","2026-04-19","2026-04-15T19:38:26.336Z","Mozilla/5.0 (Linux; Android 14; Pixel 4a (5G) Build/UP1A.231105.001.B2; wv) AppleWebKit/537.36 (KHTML, like Gecko) Version/4.0 Chrome/146.0.7680.177 Mobile Safari/537.36","379","674","240","","2179","<div class=""prompt"" style=""font-size:24px; margin-bottom:20px;"">Which word describes you more?</div>","0","pairing","18","outcast","selfish","NegNeg","91","0","negative","negative","91","outcast","left","true"
"html-keyboard-response","38","45294","0.0-2.0-0.18","1015","26","pre","9","afternoon","2026-04-07","2026-04-19","2026-04-15T19:38:26.336Z","Mozilla/5.0 (Linux; Android 14; Pixel 4a (5G) Build/UP1A.231105.001.B2; wv) AppleWebKit/537.36 (KHTML, like Gecko) Version/4.0 Chrome/146.0.7680.177 Mobile Safari/537.36","379","674","240","","null","<div style=""font-size:60px;"">+</div>","null","fixation","","","","","","","","","","","",""
"html-button-response","39","46635","0.0-2.0-1.18","1015","26","pre","9","afternoon","2026-04-07","2026-04-19","2026-04-15T19:38:26.336Z","Mozilla/5.0 (Linux; Android 14; Pixel 4a (5G) Build/UP1A.231105.001.B2; wv) AppleWebKit/537.36 (KHTML, like Gecko) Version/4.0 Chrome/146.0.7680.177 Mobile Safari/537.36","379","674","240","","1338","<div class=""prompt"" style=""font-size:24px; margin-bottom:20px;"">Which word describes you more?</div>","1","pairing","19","healthy","flawless","PosPos","100","81","positive","positive","19","flawless","right","true"
"html-keyboard-response","40","47438","0.0-2.0-0.19","1015","26","pre","9","afternoon","2026-04-07","2026-04-19","2026-04-15T19:38:26.336Z","Mozilla/5.0 (Linux; Android 14; Pixel 4a (5G) Build/UP1A.231105.001.B2; wv) AppleWebKit/537.36 (KHTML, like Gecko) Version/4.0 Chrome/146.0.7680.177 Mobile Safari/537.36","379","674","240","","null","<div style=""font-size:60px;"">+</div>","null","fixation","","","","","","","","","","","",""
"html-button-response","41","49661","0.0-2.0-1.19","1015","26","pre","9","afternoon","2026-04-07","2026-04-19","2026-04-15T19:38:26.336Z","Mozilla/5.0 (Linux; Android 14; Pixel 4a (5G) Build/UP1A.231105.001.B2; wv) AppleWebKit/537.36 (KHTML, like Gecko) Version/4.0 Chrome/146.0.7680.177 Mobile Safari/537.36","379","674","240","","2221","<div class=""prompt"" style=""font-size:24px; margin-bottom:20px;"">Which word describes you more?</div>","1","pairing","20","awkward","playful","PosNeg","69","68","negative","positive","1","playful","right","true"
"html-keyboard-response","42","50464","0.0-2.0-0.20","1015","26","pre","9","afternoon","2026-04-07","2026-04-19","2026-04-15T19:38:26.336Z","Mozilla/5.0 (Linux; Android 14; Pixel 4a (5G) Build/UP1A.231105.001.B2; wv) AppleWebKit/537.36 (KHTML, like Gecko) Version/4.0 Chrome/146.0.7680.177 Mobile Safari/537.36","379","674","240","","null","<div style=""font-size:60px;"">+</div>","null","fixation","","","","","","","","","","","",""
"html-button-response","43","51544","0.0-2.0-1.20","1015","26","pre","9","afternoon","2026-04-07","2026-04-19","2026-04-15T19:38:26.336Z","Mozilla/5.0 (Linux; Android 14; Pixel 4a (5G) Build/UP1A.231105.001.B2; wv) AppleWebKit/537.36 (KHTML, like Gecko) Version/4.0 Chrome/146.0.7680.177 Mobile Safari/537.36","379","674","240","","1078","<div class=""prompt"" style=""font-size:24px; margin-bottom:20px;"">Which word describes you more?</div>","1","pairing","21","failure","asset","PosNeg","0","100","negative","positive","100","asset","right","true"
"html-keyboard-response","44","52346","0.0-2.0-0.21","1015","26","pre","9","afternoon","2026-04-07","2026-04-19","2026-04-15T19:38:26.336Z","Mozilla/5.0 (Linux; Android 14; Pixel 4a (5G) Build/UP1A.231105.001.B2; wv) AppleWebKit/537.36 (KHTML, like Gecko) Version/4.0 Chrome/146.0.7680.177 Mobile Safari/537.36","379","674","240","","null","<div style=""font-size:60px;"">+</div>","null","fixation","","","","","","","","","","","",""
"html-button-response","45","53382","0.0-2.0-1.21","1015","26","pre","9","afternoon","2026-04-07","2026-04-19","2026-04-15T19:38:26.336Z","Mozilla/5.0 (Linux; Android 14; Pixel 4a (5G) Build/UP1A.231105.001.B2; wv) AppleWebKit/537.36 (KHTML, like Gecko) Version/4.0 Chrome/146.0.7680.177 Mobile Safari/537.36","379","674","240","","1034","<div class=""prompt"" style=""font-size:24px; margin-bottom:20px;"">Which word describes you more?</div>","0","pairing","22","cooperative","outcast","PosNeg","50","91","positive","negative","41","cooperative","left","true"
"html-keyboard-response","46","54184","0.0-2.0-0.22","1015","26","pre","9","afternoon","2026-04-07","2026-04-19","2026-04-15T19:38:26.336Z","Mozilla/5.0 (Linux; Android 14; Pixel 4a (5G) Build/UP1A.231105.001.B2; wv) AppleWebKit/537.36 (KHTML, like Gecko) Version/4.0 Chrome/146.0.7680.177 Mobile Safari/537.36","379","674","240","","null","<div style=""font-size:60px;"">+</div>","null","fixation","","","","","","","","","","","",""
"html-button-response","47","55204","0.0-2.0-1.22","1015","26","pre","9","afternoon","2026-04-07","2026-04-19","2026-04-15T19:38:26.336Z","Mozilla/5.0 (Linux; Android 14; Pixel 4a (5G) Build/UP1A.231105.001.B2; wv) AppleWebKit/537.36 (KHTML, like Gecko) Version/4.0 Chrome/146.0.7680.177 Mobile Safari/537.36","379","674","240","","1016","<div class=""prompt"" style=""font-size:24px; margin-bottom:20px;"">Which word describes you more?</div>","0","pairing","23","talented","valued","PosPos","100","0","positive","positive","100","talented","left","true"
"html-keyboard-response","48","56007","0.0-2.0-0.23","1015","26","pre","9","afternoon","2026-04-07","2026-04-19","2026-04-15T19:38:26.336Z","Mozilla/5.0 (Linux; Android 14; Pixel 4a (5G) Build/UP1A.231105.001.B2; wv) AppleWebKit/537.36 (KHTML, like Gecko) Version/4.0 Chrome/146.0.7680.177 Mobile Safari/537.36","379","674","240","","null","<div style=""font-size:60px;"">+</div>","null","fixation","","","","","","","","","","","",""
"html-button-response","49","59687","0.0-2.0-1.23","1015","26","pre","9","afternoon","2026-04-07","2026-04-19","2026-04-15T19:38:26.336Z","Mozilla/5.0 (Linux; Android 14; Pixel 4a (5G) Build/UP1A.231105.001.B2; wv) AppleWebKit/537.36 (KHTML, like Gecko) Version/4.0 Chrome/146.0.7680.177 Mobile Safari/537.36","379","674","240","","3676","<div class=""prompt"" style=""font-size:24px; margin-bottom:20px;"">Which word describes you more?</div>","1","pairing","24","irritating","adorable","PosNeg","49","0","negative","positive","49","adorable","right","true"
"instructions","50","60442","0.0-3.0","1015","26","pre","9","afternoon","2026-04-07","2026-04-19","2026-04-15T19:38:26.336Z","Mozilla/5.0 (Linux; Android 14; Pixel 4a (5G) Build/UP1A.231105.001.B2; wv) AppleWebKit/537.36 (KHTML, like Gecko) Version/4.0 Chrome/146.0.7680.177 Mobile Safari/537.36","379","674","240","[{""page_index"":0,""viewing_time"":753}]","754","","","","","","","","","","","","","","",""
