"trial_type","trial_index","time_elapsed","internal_node_id","PUNS_ID","session_number","session_phase","session_day","session_slot","ema_start_date","ema_post_start_date","experiment_start","browser","screen_width","screen_height","timezone_offset","view_history","rt","stimulus","response","which_experiment_phase","trial_number","left_word","right_word","valence","left_base_rating","right_base_rating","left_valence","right_valence","abs_diff","participant_response","chosen_side","valid_response"
"pavlovia","0","1921","0.0-0.0","1013","44","post","5","afternoon","2026-02-05","2026-02-17","2026-02-22T00:31:58.217Z","Mozilla/5.0 (iPhone; CPU iPhone OS 18_1_1 like Mac OS X) AppleWebKit/605.1.15 (KHTML, like Gecko) Mobile/15E148","358","632","480","","","","","","","","","","","","","","","","",""
"instructions","1","7279","0.0-1.0","1013","44","post","5","afternoon","2026-02-05","2026-02-17","2026-02-22T00:31:58.217Z","Mozilla/5.0 (iPhone; CPU iPhone OS 18_1_1 like Mac OS X) AppleWebKit/605.1.15 (KHTML, like Gecko) Mobile/15E148","358","632","480","[{""page_index"":0,""viewing_time"":1031},{""page_index"":1,""viewing_time"":1085},{""page_index"":2,""viewing_time"":1854},{""page_index"":3,""viewing_time"":1384}]","5355","","","","","","","","","","","","","","",""
"html-keyboard-response","2","8085","0.0-2.0-0.0","1013","44","post","5","afternoon","2026-02-05","2026-02-17","2026-02-22T00:31:58.217Z","Mozilla/5.0 (iPhone; CPU iPhone OS 18_1_1 like Mac OS X) AppleWebKit/605.1.15 (KHTML, like Gecko) Mobile/15E148","358","632","480","","null","<div style=""font-size:60px;"">+</div>","null","fixation","","","","","","","","","","","",""
"html-button-response","3","10831","0.0-2.0-1.0","1013","44","post","5","afternoon","2026-02-05","2026-02-17","2026-02-22T00:31:58.217Z","Mozilla/5.0 (iPhone; CPU iPhone OS 18_1_1 like Mac OS X) AppleWebKit/605.1.15 (KHTML, like Gecko) Mobile/15E148","358","632","480","","2741","<div class=""prompt"" style=""font-size:24px; margin-bottom:20px;"">Which word describes you more?</div>","1","pairing","1","disgrace","carefree","PosNeg","13","2","negative","positive","11","carefree","right","true"
"html-keyboard-response","4","11633","0.0-2.0-0.1","1013","44","post","5","afternoon","2026-02-05","2026-02-17","2026-02-22T00:31:58.217Z","Mozilla/5.0 (iPhone; CPU iPhone OS 18_1_1 like Mac OS X) AppleWebKit/605.1.15 (KHTML, like Gecko) Mobile/15E148","358","632","480","","null","<div style=""font-size:60px;"">+</div>","null","fixation","","","","","","","","","","","",""
"html-button-response","5","13869","0.0-2.0-1.1","1013","44","post","5","afternoon","2026-02-05","2026-02-17","2026-02-22T00:31:58.217Z","Mozilla/5.0 (iPhone; CPU iPhone OS 18_1_1 like Mac OS X) AppleWebKit/605.1.15 (KHTML, like Gecko) Mobile/15E148","358","632","480","","2233","<div class=""prompt"" style=""font-size:24px; margin-bottom:20px;"">Which word describes you more?</div>","1","pairing","2","carefree","virtuous","PosPos","2","90","positive","positive","88","virtuous","right","true"
"html-keyboard-response","6","14672","0.0-2.0-0.2","1013","44","post","5","afternoon","2026-02-05","2026-02-17","2026-02-22T00:31:58.217Z","Mozilla/5.0 (iPhone; CPU iPhone OS 18_1_1 like Mac OS X) AppleWebKit/605.1.15 (KHTML, like Gecko) Mobile/15E148","358","632","480","","null","<div style=""font-size:60px;"">+</div>","null","fixation","","","","","","","","","","","",""
"html-button-response","7","16504","0.0-2.0-1.2","1013","44","post","5","afternoon","2026-02-05","2026-02-17","2026-02-22T00:31:58.217Z","Mozilla/5.0 (iPhone; CPU iPhone OS 18_1_1 like Mac OS X) AppleWebKit/605.1.15 (KHTML, like Gecko) Mobile/15E148","358","632","480","","1830","<div class=""prompt"" style=""font-size:24px; margin-bottom:20px;"">Which word describes you more?</div>","0","pairing","3","grateful","terrible","PosNeg","81","11","positive","negative","70","grateful","left","true"
"html-keyboard-response","8","17309","0.0-2.0-0.3","1013","44","post","5","afternoon","2026-02-05","2026-02-17","2026-02-22T00:31:58.217Z","Mozilla/5.0 (iPhone; CPU iPhone OS 18_1_1 like Mac OS X) AppleWebKit/605.1.15 (KHTML, like Gecko) Mobile/15E148","358","632","480","","null","<div style=""font-size:60px;"">+</div>","null","fixation","","","","","","","","","","","",""
"html-button-response","9","18840","0.0-2.0-1.3","1013","44","post","5","afternoon","2026-02-05","2026-02-17","2026-02-22T00:31:58.217Z","Mozilla/5.0 (iPhone; CPU iPhone OS 18_1_1 like Mac OS X) AppleWebKit/605.1.15 (KHTML, like Gecko) Mobile/15E148","358","632","480","","1528","<div class=""prompt"" style=""font-size:24px; margin-bottom:20px;"">Which word describes you more?</div>","0","pairing","4","carefree","phony","PosNeg","2","4","positive","negative","2","carefree","left","true"
"html-keyboard-response","10","19643","0.0-2.0-0.4","1013","44","post","5","afternoon","2026-02-05","2026-02-17","2026-02-22T00:31:58.217Z","Mozilla/5.0 (iPhone; CPU iPhone OS 18_1_1 like Mac OS X) AppleWebKit/605.1.15 (KHTML, like Gecko) Mobile/15E148","358","632","480","","null","<div style=""font-size:60px;"">+</div>","null","fixation","","","","","","","","","","","",""
"html-button-response","11","21143","0.0-2.0-1.4","1013","44","post","5","afternoon","2026-02-05","2026-02-17","2026-02-22T00:31:58.217Z","Mozilla/5.0 (iPhone; CPU iPhone OS 18_1_1 like Mac OS X) AppleWebKit/605.1.15 (KHTML, like Gecko) Mobile/15E148","358","632","480","","1498","<div class=""prompt"" style=""font-size:24px; margin-bottom:20px;"">Which word describes you more?</div>","1","pairing","5","jerk","stingy","NegNeg","12","35","negative","negative","23","stingy","right","true"
"html-keyboard-response","12","21947","0.0-2.0-0.5","1013","44","post","5","afternoon","2026-02-05","2026-02-17","2026-02-22T00:31:58.217Z","Mozilla/5.0 (iPhone; CPU iPhone OS 18_1_1 like Mac OS X) AppleWebKit/605.1.15 (KHTML, like Gecko) Mobile/15E148","358","632","480","","null","<div style=""font-size:60px;"">+</div>","null","fixation","","","","","","","","","","","",""
"html-button-response","13","23845","0.0-2.0-1.5","1013","44","post","5","afternoon","2026-02-05","2026-02-17","2026-02-22T00:31:58.217Z","Mozilla/5.0 (iPhone; CPU iPhone OS 18_1_1 like Mac OS X) AppleWebKit/605.1.15 (KHTML, like Gecko) Mobile/15E148","358","632","480","","1895","<div class=""prompt"" style=""font-size:24px; margin-bottom:20px;"">Which word describes you more?</div>","1","pairing","6","immoral","peaceful","PosNeg","0","12","negative","positive","12","peaceful","right","true"
"html-keyboard-response","14","24648","0.0-2.0-0.6","1013","44","post","5","afternoon","2026-02-05","2026-02-17","2026-02-22T00:31:58.217Z","Mozilla/5.0 (iPhone; CPU iPhone OS 18_1_1 like Mac OS X) AppleWebKit/605.1.15 (KHTML, like Gecko) Mobile/15E148","358","632","480","","null","<div style=""font-size:60px;"">+</div>","null","fixation","","","","","","","","","","","",""
"html-button-response","15","26631","0.0-2.0-1.6","1013","44","post","5","afternoon","2026-02-05","2026-02-17","2026-02-22T00:31:58.217Z","Mozilla/5.0 (iPhone; CPU iPhone OS 18_1_1 like Mac OS X) AppleWebKit/605.1.15 (KHTML, like Gecko) Mobile/15E148","358","632","480","","1980","<div class=""prompt"" style=""font-size:24px; margin-bottom:20px;"">Which word describes you more?</div>","1","pairing","7","flawless","distressed","PosNeg","4","72","positive","negative","68","distressed","right","true"
"html-keyboard-response","16","27434","0.0-2.0-0.7","1013","44","post","5","afternoon","2026-02-05","2026-02-17","2026-02-22T00:31:58.217Z","Mozilla/5.0 (iPhone; CPU iPhone OS 18_1_1 like Mac OS X) AppleWebKit/605.1.15 (KHTML, like Gecko) Mobile/15E148","358","632","480","","null","<div style=""font-size:60px;"">+</div>","null","fixation","","","","","","","","","","","",""
"html-button-response","17","28933","0.0-2.0-1.7","1013","44","post","5","afternoon","2026-02-05","2026-02-17","2026-02-22T00:31:58.217Z","Mozilla/5.0 (iPhone; CPU iPhone OS 18_1_1 like Mac OS X) AppleWebKit/605.1.15 (KHTML, like Gecko) Mobile/15E148","358","632","480","","1497","<div class=""prompt"" style=""font-size:24px; margin-bottom:20px;"">Which word describes you more?</div>","0","pairing","8","headache","flawless","PosNeg","72","4","negative","positive","68","headache","left","true"
"html-keyboard-response","18","29737","0.0-2.0-0.8","1013","44","post","5","afternoon","2026-02-05","2026-02-17","2026-02-22T00:31:58.217Z","Mozilla/5.0 (iPhone; CPU iPhone OS 18_1_1 like Mac OS X) AppleWebKit/605.1.15 (KHTML, like Gecko) Mobile/15E148","358","632","480","","null","<div style=""font-size:60px;"">+</div>","null","fixation","","","","","","","","","","","",""
"html-button-response","19","31473","0.0-2.0-1.8","1013","44","post","5","afternoon","2026-02-05","2026-02-17","2026-02-22T00:31:58.217Z","Mozilla/5.0 (iPhone; CPU iPhone OS 18_1_1 like Mac OS X) AppleWebKit/605.1.15 (KHTML, like Gecko) Mobile/15E148","358","632","480","","1728","<div class=""prompt"" style=""font-size:24px; margin-bottom:20px;"">Which word describes you more?</div>","1","pairing","9","bitter","peaceful","PosNeg","62","12","negative","positive","50","peaceful","right","true"
"html-keyboard-response","20","32277","0.0-2.0-0.9","1013","44","post","5","afternoon","2026-02-05","2026-02-17","2026-02-22T00:31:58.217Z","Mozilla/5.0 (iPhone; CPU iPhone OS 18_1_1 like Mac OS X) AppleWebKit/605.1.15 (KHTML, like Gecko) Mobile/15E148","358","632","480","","null","<div style=""font-size:60px;"">+</div>","null","fixation","","","","","","","","","","","",""
"html-button-response","21","34339","0.0-2.0-1.9","1013","44","post","5","afternoon","2026-02-05","2026-02-17","2026-02-22T00:31:58.217Z","Mozilla/5.0 (iPhone; CPU iPhone OS 18_1_1 like Mac OS X) AppleWebKit/605.1.15 (KHTML, like Gecko) Mobile/15E148","358","632","480","","2058","<div class=""prompt"" style=""font-size:24px; margin-bottom:20px;"">Which word describes you more?</div>","0","pairing","10","courteous","blissful","PosPos","77","6","positive","positive","71","courteous","left","true"
"html-keyboard-response","22","35141","0.0-2.0-0.10","1013","44","post","5","afternoon","2026-02-05","2026-02-17","2026-02-22T00:31:58.217Z","Mozilla/5.0 (iPhone; CPU iPhone OS 18_1_1 like Mac OS X) AppleWebKit/605.1.15 (KHTML, like Gecko) Mobile/15E148","358","632","480","","null","<div style=""font-size:60px;"">+</div>","null","fixation","","","","","","","","","","","",""
"html-button-response","23","37257","0.0-2.0-1.10","1013","44","post","5","afternoon","2026-02-05","2026-02-17","2026-02-22T00:31:58.217Z","Mozilla/5.0 (iPhone; CPU iPhone OS 18_1_1 like Mac OS X) AppleWebKit/605.1.15 (KHTML, like Gecko) Mobile/15E148","358","632","480","","2112","<div class=""prompt"" style=""font-size:24px; margin-bottom:20px;"">Which word describes you more?</div>","0","pairing","11","selfish","shameful","NegNeg","50","12","negative","negative","38","selfish","left","true"
"html-keyboard-response","24","38060","0.0-2.0-0.11","1013","44","post","5","afternoon","2026-02-05","2026-02-17","2026-02-22T00:31:58.217Z","Mozilla/5.0 (iPhone; CPU iPhone OS 18_1_1 like Mac OS X) AppleWebKit/605.1.15 (KHTML, like Gecko) Mobile/15E148","358","632","480","","null","<div style=""font-size:60px;"">+</div>","null","fixation","","","","","","","","","","","",""
"html-button-response","25","39576","0.0-2.0-1.11","1013","44","post","5","afternoon","2026-02-05","2026-02-17","2026-02-22T00:31:58.217Z","Mozilla/5.0 (iPhone; CPU iPhone OS 18_1_1 like Mac OS X) AppleWebKit/605.1.15 (KHTML, like Gecko) Mobile/15E148","358","632","480","","1513","<div class=""prompt"" style=""font-size:24px; margin-bottom:20px;"">Which word describes you more?</div>","1","pairing","12","toxic","distressed","NegNeg","12","72","negative","negative","60","distressed","right","true"
"html-keyboard-response","26","40380","0.0-2.0-0.12","1013","44","post","5","afternoon","2026-02-05","2026-02-17","2026-02-22T00:31:58.217Z","Mozilla/5.0 (iPhone; CPU iPhone OS 18_1_1 like Mac OS X) AppleWebKit/605.1.15 (KHTML, like Gecko) Mobile/15E148","358","632","480","","null","<div style=""font-size:60px;"">+</div>","null","fixation","","","","","","","","","","","",""
"html-button-response","27","41828","0.0-2.0-1.12","1013","44","post","5","afternoon","2026-02-05","2026-02-17","2026-02-22T00:31:58.217Z","Mozilla/5.0 (iPhone; CPU iPhone OS 18_1_1 like Mac OS X) AppleWebKit/605.1.15 (KHTML, like Gecko) Mobile/15E148","358","632","480","","1446","<div class=""prompt"" style=""font-size:24px; margin-bottom:20px;"">Which word describes you more?</div>","0","pairing","13","champion","regretful","PosNeg","70","65","positive","negative","5","champion","left","true"
"html-keyboard-response","28","42631","0.0-2.0-0.13","1013","44","post","5","afternoon","2026-02-05","2026-02-17","2026-02-22T00:31:58.217Z","Mozilla/5.0 (iPhone; CPU iPhone OS 18_1_1 like Mac OS X) AppleWebKit/605.1.15 (KHTML, like Gecko) Mobile/15E148","358","632","480","","null","<div style=""font-size:60px;"">+</div>","null","fixation","","","","","","","","","","","",""
"html-button-response","29","44313","0.0-2.0-1.13","1013","44","post","5","afternoon","2026-02-05","2026-02-17","2026-02-22T00:31:58.217Z","Mozilla/5.0 (iPhone; CPU iPhone OS 18_1_1 like Mac OS X) AppleWebKit/605.1.15 (KHTML, like Gecko) Mobile/15E148","358","632","480","","1681","<div class=""prompt"" style=""font-size:24px; margin-bottom:20px;"">Which word describes you more?</div>","0","pairing","14","learner","smart","PosPos","98","89","positive","positive","9","learner","left","true"
"html-keyboard-response","30","45116","0.0-2.0-0.14","1013","44","post","5","afternoon","2026-02-05","2026-02-17","2026-02-22T00:31:58.217Z","Mozilla/5.0 (iPhone; CPU iPhone OS 18_1_1 like Mac OS X) AppleWebKit/605.1.15 (KHTML, like Gecko) Mobile/15E148","358","632","480","","null","<div style=""font-size:60px;"">+</div>","null","fixation","","","","","","","","","","","",""
"html-button-response","31","46466","0.0-2.0-1.14","1013","44","post","5","afternoon","2026-02-05","2026-02-17","2026-02-22T00:31:58.217Z","Mozilla/5.0 (iPhone; CPU iPhone OS 18_1_1 like Mac OS X) AppleWebKit/605.1.15 (KHTML, like Gecko) Mobile/15E148","358","632","480","","1347","<div class=""prompt"" style=""font-size:24px; margin-bottom:20px;"">Which word describes you more?</div>","1","pairing","15","esteemed","seeker","PosPos","49","100","positive","positive","51","seeker","right","true"
"html-keyboard-response","32","47270","0.0-2.0-0.15","1013","44","post","5","afternoon","2026-02-05","2026-02-17","2026-02-22T00:31:58.217Z","Mozilla/5.0 (iPhone; CPU iPhone OS 18_1_1 like Mac OS X) AppleWebKit/605.1.15 (KHTML, like Gecko) Mobile/15E148","358","632","480","","null","<div style=""font-size:60px;"">+</div>","null","fixation","","","","","","","","","","","",""
"html-button-response","33","48684","0.0-2.0-1.15","1013","44","post","5","afternoon","2026-02-05","2026-02-17","2026-02-22T00:31:58.217Z","Mozilla/5.0 (iPhone; CPU iPhone OS 18_1_1 like Mac OS X) AppleWebKit/605.1.15 (KHTML, like Gecko) Mobile/15E148","358","632","480","","1412","<div class=""prompt"" style=""font-size:24px; margin-bottom:20px;"">Which word describes you more?</div>","0","pairing","16","heartbroken","sadistic","NegNeg","78","4","negative","negative","74","heartbroken","left","true"
"html-keyboard-response","34","49486","0.0-2.0-0.16","1013","44","post","5","afternoon","2026-02-05","2026-02-17","2026-02-22T00:31:58.217Z","Mozilla/5.0 (iPhone; CPU iPhone OS 18_1_1 like Mac OS X) AppleWebKit/605.1.15 (KHTML, like Gecko) Mobile/15E148","358","632","480","","null","<div style=""font-size:60px;"">+</div>","null","fixation","","","","","","","","","","","",""
"html-button-response","35","51505","0.0-2.0-1.16","1013","44","post","5","afternoon","2026-02-05","2026-02-17","2026-02-22T00:31:58.217Z","Mozilla/5.0 (iPhone; CPU iPhone OS 18_1_1 like Mac OS X) AppleWebKit/605.1.15 (KHTML, like Gecko) Mobile/15E148","358","632","480","","2016","<div class=""prompt"" style=""font-size:24px; margin-bottom:20px;"">Which word describes you more?</div>","0","pairing","17","spectacular","negligent","PosNeg","57","5","positive","negative","52","spectacular","left","true"
"html-keyboard-response","36","52308","0.0-2.0-0.17","1013","44","post","5","afternoon","2026-02-05","2026-02-17","2026-02-22T00:31:58.217Z","Mozilla/5.0 (iPhone; CPU iPhone OS 18_1_1 like Mac OS X) AppleWebKit/605.1.15 (KHTML, like Gecko) Mobile/15E148","358","632","480","","null","<div style=""font-size:60px;"">+</div>","null","fixation","","","","","","","","","","","",""
"html-button-response","37","53956","0.0-2.0-1.17","1013","44","post","5","afternoon","2026-02-05","2026-02-17","2026-02-22T00:31:58.217Z","Mozilla/5.0 (iPhone; CPU iPhone OS 18_1_1 like Mac OS X) AppleWebKit/605.1.15 (KHTML, like Gecko) Mobile/15E148","358","632","480","","1645","<div class=""prompt"" style=""font-size:24px; margin-bottom:20px;"">Which word describes you more?</div>","0","pairing","18","insecure","untrustworthy","NegNeg","19","1","negative","negative","18","insecure","left","true"
"html-keyboard-response","38","54759","0.0-2.0-0.18","1013","44","post","5","afternoon","2026-02-05","2026-02-17","2026-02-22T00:31:58.217Z","Mozilla/5.0 (iPhone; CPU iPhone OS 18_1_1 like Mac OS X) AppleWebKit/605.1.15 (KHTML, like Gecko) Mobile/15E148","358","632","480","","null","<div style=""font-size:60px;"">+</div>","null","fixation","","","","","","","","","","","",""
"html-button-response","39","57743","0.0-2.0-1.18","1013","44","post","5","afternoon","2026-02-05","2026-02-17","2026-02-22T00:31:58.217Z","Mozilla/5.0 (iPhone; CPU iPhone OS 18_1_1 like Mac OS X) AppleWebKit/605.1.15 (KHTML, like Gecko) Mobile/15E148","358","632","480","","2981","<div class=""prompt"" style=""font-size:24px; margin-bottom:20px;"">Which word describes you more?</div>","1","pairing","19","untrustworthy","heartbroken","NegNeg","1","78","negative","negative","77","heartbroken","right","true"
"html-keyboard-response","40","58546","0.0-2.0-0.19","1013","44","post","5","afternoon","2026-02-05","2026-02-17","2026-02-22T00:31:58.217Z","Mozilla/5.0 (iPhone; CPU iPhone OS 18_1_1 like Mac OS X) AppleWebKit/605.1.15 (KHTML, like Gecko) Mobile/15E148","358","632","480","","null","<div style=""font-size:60px;"">+</div>","null","fixation","","","","","","","","","","","",""
"html-button-response","41","60879","0.0-2.0-1.19","1013","44","post","5","afternoon","2026-02-05","2026-02-17","2026-02-22T00:31:58.217Z","Mozilla/5.0 (iPhone; CPU iPhone OS 18_1_1 like Mac OS X) AppleWebKit/605.1.15 (KHTML, like Gecko) Mobile/15E148","358","632","480","","2331","<div class=""prompt"" style=""font-size:24px; margin-bottom:20px;"">Which word describes you more?</div>","1","pairing","20","virtuous","seeker","PosPos","90","100","positive","positive","10","seeker","right","true"
"html-keyboard-response","42","61682","0.0-2.0-0.20","1013","44","post","5","afternoon","2026-02-05","2026-02-17","2026-02-22T00:31:58.217Z","Mozilla/5.0 (iPhone; CPU iPhone OS 18_1_1 like Mac OS X) AppleWebKit/605.1.15 (KHTML, like Gecko) Mobile/15E148","358","632","480","","null","<div style=""font-size:60px;"">+</div>","null","fixation","","","","","","","","","","","",""
"html-button-response","43","64164","0.0-2.0-1.20","1013","44","post","5","afternoon","2026-02-05","2026-02-17","2026-02-22T00:31:58.217Z","Mozilla/5.0 (iPhone; CPU iPhone OS 18_1_1 like Mac OS X) AppleWebKit/605.1.15 (KHTML, like Gecko) Mobile/15E148","358","632","480","","2479","<div class=""prompt"" style=""font-size:24px; margin-bottom:20px;"">Which word describes you more?</div>","1","pairing","21","stingy","clever","PosNeg","35","79","negative","positive","44","clever","right","true"
"html-keyboard-response","44","64967","0.0-2.0-0.21","1013","44","post","5","afternoon","2026-02-05","2026-02-17","2026-02-22T00:31:58.217Z","Mozilla/5.0 (iPhone; CPU iPhone OS 18_1_1 like Mac OS X) AppleWebKit/605.1.15 (KHTML, like Gecko) Mobile/15E148","358","632","480","","null","<div style=""font-size:60px;"">+</div>","null","fixation","","","","","","","","","","","",""
"html-button-response","45","66234","0.0-2.0-1.21","1013","44","post","5","afternoon","2026-02-05","2026-02-17","2026-02-22T00:31:58.217Z","Mozilla/5.0 (iPhone; CPU iPhone OS 18_1_1 like Mac OS X) AppleWebKit/605.1.15 (KHTML, like Gecko) Mobile/15E148","358","632","480","","1266","<div class=""prompt"" style=""font-size:24px; margin-bottom:20px;"">Which word describes you more?</div>","1","pairing","22","miserable","visionary","PosNeg","10","99","negative","positive","89","visionary","right","true"
"html-keyboard-response","46","67037","0.0-2.0-0.22","1013","44","post","5","afternoon","2026-02-05","2026-02-17","2026-02-22T00:31:58.217Z","Mozilla/5.0 (iPhone; CPU iPhone OS 18_1_1 like Mac OS X) AppleWebKit/605.1.15 (KHTML, like Gecko) Mobile/15E148","358","632","480","","null","<div style=""font-size:60px;"">+</div>","null","fixation","","","","","","","","","","","",""
"html-button-response","47","69334","0.0-2.0-1.22","1013","44","post","5","afternoon","2026-02-05","2026-02-17","2026-02-22T00:31:58.217Z","Mozilla/5.0 (iPhone; CPU iPhone OS 18_1_1 like Mac OS X) AppleWebKit/605.1.15 (KHTML, like Gecko) Mobile/15E148","358","632","480","","2295","<div class=""prompt"" style=""font-size:24px; margin-bottom:20px;"">Which word describes you more?</div>","0","pairing","23","helper","graceful","PosPos","92","51","positive","positive","41","helper","left","true"
"html-keyboard-response","48","70136","0.0-2.0-0.23","1013","44","post","5","afternoon","2026-02-05","2026-02-17","2026-02-22T00:31:58.217Z","Mozilla/5.0 (iPhone; CPU iPhone OS 18_1_1 like Mac OS X) AppleWebKit/605.1.15 (KHTML, like Gecko) Mobile/15E148","358","632","480","","null","<div style=""font-size:60px;"">+</div>","null","fixation","","","","","","","","","","","",""
"html-button-response","49","71823","0.0-2.0-1.23","1013","44","post","5","afternoon","2026-02-05","2026-02-17","2026-02-22T00:31:58.217Z","Mozilla/5.0 (iPhone; CPU iPhone OS 18_1_1 like Mac OS X) AppleWebKit/605.1.15 (KHTML, like Gecko) Mobile/15E148","358","632","480","","1684","<div class=""prompt"" style=""font-size:24px; margin-bottom:20px;"">Which word describes you more?</div>","1","pairing","24","blissful","outcast","PosNeg","6","70","positive","negative","64","outcast","right","true"
"instructions","50","72956","0.0-3.0","1013","44","post","5","afternoon","2026-02-05","2026-02-17","2026-02-22T00:31:58.217Z","Mozilla/5.0 (iPhone; CPU iPhone OS 18_1_1 like Mac OS X) AppleWebKit/605.1.15 (KHTML, like Gecko) Mobile/15E148","358","632","480","[{""page_index"":0,""viewing_time"":1131}]","1132","","","","","","","","","","","","","","",""
