"trial_type","trial_index","time_elapsed","internal_node_id","PUNS_ID","session_number","session_phase","session_day","session_slot","ema_start_date","ema_post_start_date","experiment_start","browser","screen_width","screen_height","timezone_offset","view_history","rt","stimulus","response","which_experiment_phase","trial_number","left_word","right_word","valence","left_base_rating","right_base_rating","left_valence","right_valence","abs_diff","participant_response","chosen_side","valid_response"
"pavlovia","0","2352","0.0-0.0","1032","14","pre","5","afternoon","2026-04-15","2026-04-27","2026-04-19T21:29:43.146Z","Mozilla/5.0 (Linux; Android 16; Pixel 9 Pro Build/CP1A.260405.005; wv) AppleWebKit/537.36 (KHTML, like Gecko) Version/4.0 Chrome/146.0.7680.177 Mobile Safari/537.36","394","719","420","","","","","","","","","","","","","","","","",""
"instructions","1","4005","0.0-1.0","1032","14","pre","5","afternoon","2026-04-15","2026-04-27","2026-04-19T21:29:43.146Z","Mozilla/5.0 (Linux; Android 16; Pixel 9 Pro Build/CP1A.260405.005; wv) AppleWebKit/537.36 (KHTML, like Gecko) Version/4.0 Chrome/146.0.7680.177 Mobile Safari/537.36","394","719","420","[{""page_index"":0,""viewing_time"":76},{""page_index"":1,""viewing_time"":509},{""page_index"":2,""viewing_time"":543},{""page_index"":3,""viewing_time"":520}]","1648","","","","","","","","","","","","","","",""
"html-keyboard-response","2","4811","0.0-2.0-0.0","1032","14","pre","5","afternoon","2026-04-15","2026-04-27","2026-04-19T21:29:43.146Z","Mozilla/5.0 (Linux; Android 16; Pixel 9 Pro Build/CP1A.260405.005; wv) AppleWebKit/537.36 (KHTML, like Gecko) Version/4.0 Chrome/146.0.7680.177 Mobile Safari/537.36","394","719","420","","null","<div style=""font-size:60px;"">+</div>","null","fixation","","","","","","","","","","","",""
"html-button-response","3","6999","0.0-2.0-1.0","1032","14","pre","5","afternoon","2026-04-15","2026-04-27","2026-04-19T21:29:43.146Z","Mozilla/5.0 (Linux; Android 16; Pixel 9 Pro Build/CP1A.260405.005; wv) AppleWebKit/537.36 (KHTML, like Gecko) Version/4.0 Chrome/146.0.7680.177 Mobile Safari/537.36","394","719","420","","2176","<div class=""prompt"" style=""font-size:24px; margin-bottom:20px;"">Which word describes you more?</div>","0","pairing","1","energetic","arrogant","PosNeg","23","40","positive","negative","17","energetic","left","true"
"html-keyboard-response","4","7803","0.0-2.0-0.1","1032","14","pre","5","afternoon","2026-04-15","2026-04-27","2026-04-19T21:29:43.146Z","Mozilla/5.0 (Linux; Android 16; Pixel 9 Pro Build/CP1A.260405.005; wv) AppleWebKit/537.36 (KHTML, like Gecko) Version/4.0 Chrome/146.0.7680.177 Mobile Safari/537.36","394","719","420","","null","<div style=""font-size:60px;"">+</div>","null","fixation","","","","","","","","","","","",""
"html-button-response","5","9544","0.0-2.0-1.1","1032","14","pre","5","afternoon","2026-04-15","2026-04-27","2026-04-19T21:29:43.146Z","Mozilla/5.0 (Linux; Android 16; Pixel 9 Pro Build/CP1A.260405.005; wv) AppleWebKit/537.36 (KHTML, like Gecko) Version/4.0 Chrome/146.0.7680.177 Mobile Safari/537.36","394","719","420","","1734","<div class=""prompt"" style=""font-size:24px; margin-bottom:20px;"">Which word describes you more?</div>","0","pairing","2","gentle","hopeless","PosNeg","35","21","positive","negative","14","gentle","left","true"
"html-keyboard-response","6","10348","0.0-2.0-0.2","1032","14","pre","5","afternoon","2026-04-15","2026-04-27","2026-04-19T21:29:43.146Z","Mozilla/5.0 (Linux; Android 16; Pixel 9 Pro Build/CP1A.260405.005; wv) AppleWebKit/537.36 (KHTML, like Gecko) Version/4.0 Chrome/146.0.7680.177 Mobile Safari/537.36","394","719","420","","null","<div style=""font-size:60px;"">+</div>","null","fixation","","","","","","","","","","","",""
"html-button-response","7","12759","0.0-2.0-1.2","1032","14","pre","5","afternoon","2026-04-15","2026-04-27","2026-04-19T21:29:43.146Z","Mozilla/5.0 (Linux; Android 16; Pixel 9 Pro Build/CP1A.260405.005; wv) AppleWebKit/537.36 (KHTML, like Gecko) Version/4.0 Chrome/146.0.7680.177 Mobile Safari/537.36","394","719","420","","2403","<div class=""prompt"" style=""font-size:24px; margin-bottom:20px;"">Which word describes you more?</div>","1","pairing","3","unlucky","carefree","PosNeg","60","20","negative","positive","40","carefree","right","true"
"html-keyboard-response","8","13562","0.0-2.0-0.3","1032","14","pre","5","afternoon","2026-04-15","2026-04-27","2026-04-19T21:29:43.146Z","Mozilla/5.0 (Linux; Android 16; Pixel 9 Pro Build/CP1A.260405.005; wv) AppleWebKit/537.36 (KHTML, like Gecko) Version/4.0 Chrome/146.0.7680.177 Mobile Safari/537.36","394","719","420","","null","<div style=""font-size:60px;"">+</div>","null","fixation","","","","","","","","","","","",""
"html-button-response","9","15859","0.0-2.0-1.3","1032","14","pre","5","afternoon","2026-04-15","2026-04-27","2026-04-19T21:29:43.146Z","Mozilla/5.0 (Linux; Android 16; Pixel 9 Pro Build/CP1A.260405.005; wv) AppleWebKit/537.36 (KHTML, like Gecko) Version/4.0 Chrome/146.0.7680.177 Mobile Safari/537.36","394","719","420","","2286","<div class=""prompt"" style=""font-size:24px; margin-bottom:20px;"">Which word describes you more?</div>","0","pairing","4","miserable","terrible","NegNeg","2","1","negative","negative","1","miserable","left","true"
"html-keyboard-response","10","16663","0.0-2.0-0.4","1032","14","pre","5","afternoon","2026-04-15","2026-04-27","2026-04-19T21:29:43.146Z","Mozilla/5.0 (Linux; Android 16; Pixel 9 Pro Build/CP1A.260405.005; wv) AppleWebKit/537.36 (KHTML, like Gecko) Version/4.0 Chrome/146.0.7680.177 Mobile Safari/537.36","394","719","420","","null","<div style=""font-size:60px;"">+</div>","null","fixation","","","","","","","","","","","",""
"html-button-response","11","19448","0.0-2.0-1.4","1032","14","pre","5","afternoon","2026-04-15","2026-04-27","2026-04-19T21:29:43.146Z","Mozilla/5.0 (Linux; Android 16; Pixel 9 Pro Build/CP1A.260405.005; wv) AppleWebKit/537.36 (KHTML, like Gecko) Version/4.0 Chrome/146.0.7680.177 Mobile Safari/537.36","394","719","420","","2774","<div class=""prompt"" style=""font-size:24px; margin-bottom:20px;"">Which word describes you more?</div>","0","pairing","5","charming","brave","PosPos","65","79","positive","positive","14","charming","left","true"
"html-keyboard-response","12","20254","0.0-2.0-0.5","1032","14","pre","5","afternoon","2026-04-15","2026-04-27","2026-04-19T21:29:43.146Z","Mozilla/5.0 (Linux; Android 16; Pixel 9 Pro Build/CP1A.260405.005; wv) AppleWebKit/537.36 (KHTML, like Gecko) Version/4.0 Chrome/146.0.7680.177 Mobile Safari/537.36","394","719","420","","null","<div style=""font-size:60px;"">+</div>","null","fixation","","","","","","","","","","","",""
"html-button-response","13","21384","0.0-2.0-1.5","1032","14","pre","5","afternoon","2026-04-15","2026-04-27","2026-04-19T21:29:43.146Z","Mozilla/5.0 (Linux; Android 16; Pixel 9 Pro Build/CP1A.260405.005; wv) AppleWebKit/537.36 (KHTML, like Gecko) Version/4.0 Chrome/146.0.7680.177 Mobile Safari/537.36","394","719","420","","1124","<div class=""prompt"" style=""font-size:24px; margin-bottom:20px;"">Which word describes you more?</div>","1","pairing","6","shameful","sophisticated","PosNeg","0","81","negative","positive","81","sophisticated","right","true"
"html-keyboard-response","14","22187","0.0-2.0-0.6","1032","14","pre","5","afternoon","2026-04-15","2026-04-27","2026-04-19T21:29:43.146Z","Mozilla/5.0 (Linux; Android 16; Pixel 9 Pro Build/CP1A.260405.005; wv) AppleWebKit/537.36 (KHTML, like Gecko) Version/4.0 Chrome/146.0.7680.177 Mobile Safari/537.36","394","719","420","","null","<div style=""font-size:60px;"">+</div>","null","fixation","","","","","","","","","","","",""
"html-button-response","15","23871","0.0-2.0-1.6","1032","14","pre","5","afternoon","2026-04-15","2026-04-27","2026-04-19T21:29:43.146Z","Mozilla/5.0 (Linux; Android 16; Pixel 9 Pro Build/CP1A.260405.005; wv) AppleWebKit/537.36 (KHTML, like Gecko) Version/4.0 Chrome/146.0.7680.177 Mobile Safari/537.36","394","719","420","","1675","<div class=""prompt"" style=""font-size:24px; margin-bottom:20px;"">Which word describes you more?</div>","0","pairing","7","graceful","insecure","PosNeg","63","2","positive","negative","61","graceful","left","true"
"html-keyboard-response","16","24674","0.0-2.0-0.7","1032","14","pre","5","afternoon","2026-04-15","2026-04-27","2026-04-19T21:29:43.146Z","Mozilla/5.0 (Linux; Android 16; Pixel 9 Pro Build/CP1A.260405.005; wv) AppleWebKit/537.36 (KHTML, like Gecko) Version/4.0 Chrome/146.0.7680.177 Mobile Safari/537.36","394","719","420","","null","<div style=""font-size:60px;"">+</div>","null","fixation","","","","","","","","","","","",""
"html-button-response","17","27096","0.0-2.0-1.7","1032","14","pre","5","afternoon","2026-04-15","2026-04-27","2026-04-19T21:29:43.146Z","Mozilla/5.0 (Linux; Android 16; Pixel 9 Pro Build/CP1A.260405.005; wv) AppleWebKit/537.36 (KHTML, like Gecko) Version/4.0 Chrome/146.0.7680.177 Mobile Safari/537.36","394","719","420","","2415","<div class=""prompt"" style=""font-size:24px; margin-bottom:20px;"">Which word describes you more?</div>","0","pairing","8","credible","flawless","PosPos","100","7","positive","positive","93","credible","left","true"
"html-keyboard-response","18","27902","0.0-2.0-0.8","1032","14","pre","5","afternoon","2026-04-15","2026-04-27","2026-04-19T21:29:43.146Z","Mozilla/5.0 (Linux; Android 16; Pixel 9 Pro Build/CP1A.260405.005; wv) AppleWebKit/537.36 (KHTML, like Gecko) Version/4.0 Chrome/146.0.7680.177 Mobile Safari/537.36","394","719","420","","null","<div style=""font-size:60px;"">+</div>","null","fixation","","","","","","","","","","","",""
"html-button-response","19","30454","0.0-2.0-1.8","1032","14","pre","5","afternoon","2026-04-15","2026-04-27","2026-04-19T21:29:43.146Z","Mozilla/5.0 (Linux; Android 16; Pixel 9 Pro Build/CP1A.260405.005; wv) AppleWebKit/537.36 (KHTML, like Gecko) Version/4.0 Chrome/146.0.7680.177 Mobile Safari/537.36","394","719","420","","2547","<div class=""prompt"" style=""font-size:24px; margin-bottom:20px;"">Which word describes you more?</div>","0","pairing","9","spontaneous","unlucky","PosNeg","18","60","positive","negative","42","spontaneous","left","true"
"html-keyboard-response","20","31260","0.0-2.0-0.9","1032","14","pre","5","afternoon","2026-04-15","2026-04-27","2026-04-19T21:29:43.146Z","Mozilla/5.0 (Linux; Android 16; Pixel 9 Pro Build/CP1A.260405.005; wv) AppleWebKit/537.36 (KHTML, like Gecko) Version/4.0 Chrome/146.0.7680.177 Mobile Safari/537.36","394","719","420","","null","<div style=""font-size:60px;"">+</div>","null","fixation","","","","","","","","","","","",""
"html-button-response","21","35053","0.0-2.0-1.9","1032","14","pre","5","afternoon","2026-04-15","2026-04-27","2026-04-19T21:29:43.146Z","Mozilla/5.0 (Linux; Android 16; Pixel 9 Pro Build/CP1A.260405.005; wv) AppleWebKit/537.36 (KHTML, like Gecko) Version/4.0 Chrome/146.0.7680.177 Mobile Safari/537.36","394","719","420","","3786","<div class=""prompt"" style=""font-size:24px; margin-bottom:20px;"">Which word describes you more?</div>","1","pairing","10","phony","energetic","PosNeg","0","23","negative","positive","23","energetic","right","true"
"html-keyboard-response","22","35858","0.0-2.0-0.10","1032","14","pre","5","afternoon","2026-04-15","2026-04-27","2026-04-19T21:29:43.146Z","Mozilla/5.0 (Linux; Android 16; Pixel 9 Pro Build/CP1A.260405.005; wv) AppleWebKit/537.36 (KHTML, like Gecko) Version/4.0 Chrome/146.0.7680.177 Mobile Safari/537.36","394","719","420","","null","<div style=""font-size:60px;"">+</div>","null","fixation","","","","","","","","","","","",""
"html-button-response","23","38350","0.0-2.0-1.10","1032","14","pre","5","afternoon","2026-04-15","2026-04-27","2026-04-19T21:29:43.146Z","Mozilla/5.0 (Linux; Android 16; Pixel 9 Pro Build/CP1A.260405.005; wv) AppleWebKit/537.36 (KHTML, like Gecko) Version/4.0 Chrome/146.0.7680.177 Mobile Safari/537.36","394","719","420","","2485","<div class=""prompt"" style=""font-size:24px; margin-bottom:20px;"">Which word describes you more?</div>","1","pairing","11","charming","credible","PosPos","65","100","positive","positive","35","credible","right","true"
"html-keyboard-response","24","39154","0.0-2.0-0.11","1032","14","pre","5","afternoon","2026-04-15","2026-04-27","2026-04-19T21:29:43.146Z","Mozilla/5.0 (Linux; Android 16; Pixel 9 Pro Build/CP1A.260405.005; wv) AppleWebKit/537.36 (KHTML, like Gecko) Version/4.0 Chrome/146.0.7680.177 Mobile Safari/537.36","394","719","420","","null","<div style=""font-size:60px;"">+</div>","null","fixation","","","","","","","","","","","",""
"html-button-response","25","40435","0.0-2.0-1.11","1032","14","pre","5","afternoon","2026-04-15","2026-04-27","2026-04-19T21:29:43.146Z","Mozilla/5.0 (Linux; Android 16; Pixel 9 Pro Build/CP1A.260405.005; wv) AppleWebKit/537.36 (KHTML, like Gecko) Version/4.0 Chrome/146.0.7680.177 Mobile Safari/537.36","394","719","420","","1275","<div class=""prompt"" style=""font-size:24px; margin-bottom:20px;"">Which word describes you more?</div>","1","pairing","12","carefree","successful","PosPos","20","91","positive","positive","71","successful","right","true"
"html-keyboard-response","26","41237","0.0-2.0-0.12","1032","14","pre","5","afternoon","2026-04-15","2026-04-27","2026-04-19T21:29:43.146Z","Mozilla/5.0 (Linux; Android 16; Pixel 9 Pro Build/CP1A.260405.005; wv) AppleWebKit/537.36 (KHTML, like Gecko) Version/4.0 Chrome/146.0.7680.177 Mobile Safari/537.36","394","719","420","","null","<div style=""font-size:60px;"">+</div>","null","fixation","","","","","","","","","","","",""
"html-button-response","27","42457","0.0-2.0-1.12","1032","14","pre","5","afternoon","2026-04-15","2026-04-27","2026-04-19T21:29:43.146Z","Mozilla/5.0 (Linux; Android 16; Pixel 9 Pro Build/CP1A.260405.005; wv) AppleWebKit/537.36 (KHTML, like Gecko) Version/4.0 Chrome/146.0.7680.177 Mobile Safari/537.36","394","719","420","","1212","<div class=""prompt"" style=""font-size:24px; margin-bottom:20px;"">Which word describes you more?</div>","1","pairing","13","coward","awkward","NegNeg","0","60","negative","negative","60","awkward","right","true"
"html-keyboard-response","28","43262","0.0-2.0-0.13","1032","14","pre","5","afternoon","2026-04-15","2026-04-27","2026-04-19T21:29:43.146Z","Mozilla/5.0 (Linux; Android 16; Pixel 9 Pro Build/CP1A.260405.005; wv) AppleWebKit/537.36 (KHTML, like Gecko) Version/4.0 Chrome/146.0.7680.177 Mobile Safari/537.36","394","719","420","","null","<div style=""font-size:60px;"">+</div>","null","fixation","","","","","","","","","","","",""
"html-button-response","29","47137","0.0-2.0-1.13","1032","14","pre","5","afternoon","2026-04-15","2026-04-27","2026-04-19T21:29:43.146Z","Mozilla/5.0 (Linux; Android 16; Pixel 9 Pro Build/CP1A.260405.005; wv) AppleWebKit/537.36 (KHTML, like Gecko) Version/4.0 Chrome/146.0.7680.177 Mobile Safari/537.36","394","719","420","","3870","<div class=""prompt"" style=""font-size:24px; margin-bottom:20px;"">Which word describes you more?</div>","0","pairing","14","unique","cooperative","PosPos","100","42","positive","positive","58","unique","left","true"
"html-keyboard-response","30","47940","0.0-2.0-0.14","1032","14","pre","5","afternoon","2026-04-15","2026-04-27","2026-04-19T21:29:43.146Z","Mozilla/5.0 (Linux; Android 16; Pixel 9 Pro Build/CP1A.260405.005; wv) AppleWebKit/537.36 (KHTML, like Gecko) Version/4.0 Chrome/146.0.7680.177 Mobile Safari/537.36","394","719","420","","null","<div style=""font-size:60px;"">+</div>","null","fixation","","","","","","","","","","","",""
"html-button-response","31","52947","0.0-2.0-1.14","1032","14","pre","5","afternoon","2026-04-15","2026-04-27","2026-04-19T21:29:43.146Z","Mozilla/5.0 (Linux; Android 16; Pixel 9 Pro Build/CP1A.260405.005; wv) AppleWebKit/537.36 (KHTML, like Gecko) Version/4.0 Chrome/146.0.7680.177 Mobile Safari/537.36","394","719","420","","null","<div class=""prompt"" style=""font-size:24px; margin-bottom:20px;"">Which word describes you more?</div>","null","pairing","15","unlucky","violent","NegNeg","60","2","negative","negative","58","null","null","false"
"html-keyboard-response","32","53752","0.0-2.0-0.15","1032","14","pre","5","afternoon","2026-04-15","2026-04-27","2026-04-19T21:29:43.146Z","Mozilla/5.0 (Linux; Android 16; Pixel 9 Pro Build/CP1A.260405.005; wv) AppleWebKit/537.36 (KHTML, like Gecko) Version/4.0 Chrome/146.0.7680.177 Mobile Safari/537.36","394","719","420","","null","<div style=""font-size:60px;"">+</div>","null","fixation","","","","","","","","","","","",""
"html-button-response","33","58311","0.0-2.0-1.15","1032","14","pre","5","afternoon","2026-04-15","2026-04-27","2026-04-19T21:29:43.146Z","Mozilla/5.0 (Linux; Android 16; Pixel 9 Pro Build/CP1A.260405.005; wv) AppleWebKit/537.36 (KHTML, like Gecko) Version/4.0 Chrome/146.0.7680.177 Mobile Safari/537.36","394","719","420","","4557","<div class=""prompt"" style=""font-size:24px; margin-bottom:20px;"">Which word describes you more?</div>","0","pairing","16","stingy","uninvited","NegNeg","0","5","negative","negative","5","stingy","left","true"
"html-keyboard-response","34","59114","0.0-2.0-0.16","1032","14","pre","5","afternoon","2026-04-15","2026-04-27","2026-04-19T21:29:43.146Z","Mozilla/5.0 (Linux; Android 16; Pixel 9 Pro Build/CP1A.260405.005; wv) AppleWebKit/537.36 (KHTML, like Gecko) Version/4.0 Chrome/146.0.7680.177 Mobile Safari/537.36","394","719","420","","null","<div style=""font-size:60px;"">+</div>","null","fixation","","","","","","","","","","","",""
"html-button-response","35","61971","0.0-2.0-1.16","1032","14","pre","5","afternoon","2026-04-15","2026-04-27","2026-04-19T21:29:43.146Z","Mozilla/5.0 (Linux; Android 16; Pixel 9 Pro Build/CP1A.260405.005; wv) AppleWebKit/537.36 (KHTML, like Gecko) Version/4.0 Chrome/146.0.7680.177 Mobile Safari/537.36","394","719","420","","2853","<div class=""prompt"" style=""font-size:24px; margin-bottom:20px;"">Which word describes you more?</div>","1","pairing","17","irresponsible","smiley","PosNeg","1","50","negative","positive","49","smiley","right","true"
"html-keyboard-response","36","62776","0.0-2.0-0.17","1032","14","pre","5","afternoon","2026-04-15","2026-04-27","2026-04-19T21:29:43.146Z","Mozilla/5.0 (Linux; Android 16; Pixel 9 Pro Build/CP1A.260405.005; wv) AppleWebKit/537.36 (KHTML, like Gecko) Version/4.0 Chrome/146.0.7680.177 Mobile Safari/537.36","394","719","420","","null","<div style=""font-size:60px;"">+</div>","null","fixation","","","","","","","","","","","",""
"html-button-response","37","66454","0.0-2.0-1.17","1032","14","pre","5","afternoon","2026-04-15","2026-04-27","2026-04-19T21:29:43.146Z","Mozilla/5.0 (Linux; Android 16; Pixel 9 Pro Build/CP1A.260405.005; wv) AppleWebKit/537.36 (KHTML, like Gecko) Version/4.0 Chrome/146.0.7680.177 Mobile Safari/537.36","394","719","420","","3672","<div class=""prompt"" style=""font-size:24px; margin-bottom:20px;"">Which word describes you more?</div>","0","pairing","18","visionary","cruel","PosNeg","98","0","positive","negative","98","visionary","left","true"
"html-keyboard-response","38","67259","0.0-2.0-0.18","1032","14","pre","5","afternoon","2026-04-15","2026-04-27","2026-04-19T21:29:43.146Z","Mozilla/5.0 (Linux; Android 16; Pixel 9 Pro Build/CP1A.260405.005; wv) AppleWebKit/537.36 (KHTML, like Gecko) Version/4.0 Chrome/146.0.7680.177 Mobile Safari/537.36","394","719","420","","null","<div style=""font-size:60px;"">+</div>","null","fixation","","","","","","","","","","","",""
"html-button-response","39","71210","0.0-2.0-1.18","1032","14","pre","5","afternoon","2026-04-15","2026-04-27","2026-04-19T21:29:43.146Z","Mozilla/5.0 (Linux; Android 16; Pixel 9 Pro Build/CP1A.260405.005; wv) AppleWebKit/537.36 (KHTML, like Gecko) Version/4.0 Chrome/146.0.7680.177 Mobile Safari/537.36","394","719","420","","3943","<div class=""prompt"" style=""font-size:24px; margin-bottom:20px;"">Which word describes you more?</div>","1","pairing","19","alone","malicious","NegNeg","15","0","negative","negative","15","malicious","right","true"
"html-keyboard-response","40","72015","0.0-2.0-0.19","1032","14","pre","5","afternoon","2026-04-15","2026-04-27","2026-04-19T21:29:43.146Z","Mozilla/5.0 (Linux; Android 16; Pixel 9 Pro Build/CP1A.260405.005; wv) AppleWebKit/537.36 (KHTML, like Gecko) Version/4.0 Chrome/146.0.7680.177 Mobile Safari/537.36","394","719","420","","null","<div style=""font-size:60px;"">+</div>","null","fixation","","","","","","","","","","","",""
"html-button-response","41","76587","0.0-2.0-1.19","1032","14","pre","5","afternoon","2026-04-15","2026-04-27","2026-04-19T21:29:43.146Z","Mozilla/5.0 (Linux; Android 16; Pixel 9 Pro Build/CP1A.260405.005; wv) AppleWebKit/537.36 (KHTML, like Gecko) Version/4.0 Chrome/146.0.7680.177 Mobile Safari/537.36","394","719","420","","4564","<div class=""prompt"" style=""font-size:24px; margin-bottom:20px;"">Which word describes you more?</div>","0","pairing","20","learner","inadequate","PosNeg","100","0","positive","negative","100","learner","left","true"
"html-keyboard-response","42","77391","0.0-2.0-0.20","1032","14","pre","5","afternoon","2026-04-15","2026-04-27","2026-04-19T21:29:43.146Z","Mozilla/5.0 (Linux; Android 16; Pixel 9 Pro Build/CP1A.260405.005; wv) AppleWebKit/537.36 (KHTML, like Gecko) Version/4.0 Chrome/146.0.7680.177 Mobile Safari/537.36","394","719","420","","null","<div style=""font-size:60px;"">+</div>","null","fixation","","","","","","","","","","","",""
"html-button-response","43","81667","0.0-2.0-1.20","1032","14","pre","5","afternoon","2026-04-15","2026-04-27","2026-04-19T21:29:43.146Z","Mozilla/5.0 (Linux; Android 16; Pixel 9 Pro Build/CP1A.260405.005; wv) AppleWebKit/537.36 (KHTML, like Gecko) Version/4.0 Chrome/146.0.7680.177 Mobile Safari/537.36","394","719","420","","4269","<div class=""prompt"" style=""font-size:24px; margin-bottom:20px;"">Which word describes you more?</div>","0","pairing","21","seeker","fun","PosPos","80","74","positive","positive","6","seeker","left","true"
"html-keyboard-response","44","82471","0.0-2.0-0.21","1032","14","pre","5","afternoon","2026-04-15","2026-04-27","2026-04-19T21:29:43.146Z","Mozilla/5.0 (Linux; Android 16; Pixel 9 Pro Build/CP1A.260405.005; wv) AppleWebKit/537.36 (KHTML, like Gecko) Version/4.0 Chrome/146.0.7680.177 Mobile Safari/537.36","394","719","420","","null","<div style=""font-size:60px;"">+</div>","null","fixation","","","","","","","","","","","",""
"html-button-response","45","85211","0.0-2.0-1.21","1032","14","pre","5","afternoon","2026-04-15","2026-04-27","2026-04-19T21:29:43.146Z","Mozilla/5.0 (Linux; Android 16; Pixel 9 Pro Build/CP1A.260405.005; wv) AppleWebKit/537.36 (KHTML, like Gecko) Version/4.0 Chrome/146.0.7680.177 Mobile Safari/537.36","394","719","420","","2734","<div class=""prompt"" style=""font-size:24px; margin-bottom:20px;"">Which word describes you more?</div>","1","pairing","22","stingy","energetic","PosNeg","0","23","negative","positive","23","energetic","right","true"
"html-keyboard-response","46","86014","0.0-2.0-0.22","1032","14","pre","5","afternoon","2026-04-15","2026-04-27","2026-04-19T21:29:43.146Z","Mozilla/5.0 (Linux; Android 16; Pixel 9 Pro Build/CP1A.260405.005; wv) AppleWebKit/537.36 (KHTML, like Gecko) Version/4.0 Chrome/146.0.7680.177 Mobile Safari/537.36","394","719","420","","null","<div style=""font-size:60px;"">+</div>","null","fixation","","","","","","","","","","","",""
"html-button-response","47","88465","0.0-2.0-1.22","1032","14","pre","5","afternoon","2026-04-15","2026-04-27","2026-04-19T21:29:43.146Z","Mozilla/5.0 (Linux; Android 16; Pixel 9 Pro Build/CP1A.260405.005; wv) AppleWebKit/537.36 (KHTML, like Gecko) Version/4.0 Chrome/146.0.7680.177 Mobile Safari/537.36","394","719","420","","2445","<div class=""prompt"" style=""font-size:24px; margin-bottom:20px;"">Which word describes you more?</div>","1","pairing","23","anxious","carefree","PosNeg","29","20","negative","positive","9","carefree","right","true"
"html-keyboard-response","48","89268","0.0-2.0-0.23","1032","14","pre","5","afternoon","2026-04-15","2026-04-27","2026-04-19T21:29:43.146Z","Mozilla/5.0 (Linux; Android 16; Pixel 9 Pro Build/CP1A.260405.005; wv) AppleWebKit/537.36 (KHTML, like Gecko) Version/4.0 Chrome/146.0.7680.177 Mobile Safari/537.36","394","719","420","","null","<div style=""font-size:60px;"">+</div>","null","fixation","","","","","","","","","","","",""
"html-button-response","49","92016","0.0-2.0-1.23","1032","14","pre","5","afternoon","2026-04-15","2026-04-27","2026-04-19T21:29:43.146Z","Mozilla/5.0 (Linux; Android 16; Pixel 9 Pro Build/CP1A.260405.005; wv) AppleWebKit/537.36 (KHTML, like Gecko) Version/4.0 Chrome/146.0.7680.177 Mobile Safari/537.36","394","719","420","","2741","<div class=""prompt"" style=""font-size:24px; margin-bottom:20px;"">Which word describes you more?</div>","1","pairing","24","slob","hesitant","NegNeg","0","28","negative","negative","28","hesitant","right","true"
"instructions","50","93587","0.0-3.0","1032","14","pre","5","afternoon","2026-04-15","2026-04-27","2026-04-19T21:29:43.146Z","Mozilla/5.0 (Linux; Android 16; Pixel 9 Pro Build/CP1A.260405.005; wv) AppleWebKit/537.36 (KHTML, like Gecko) Version/4.0 Chrome/146.0.7680.177 Mobile Safari/537.36","394","719","420","[{""page_index"":0,""viewing_time"":1565}]","1565","","","","","","","","","","","","","","",""
