"trial_type","trial_index","time_elapsed","internal_node_id","BASE_QUALTRICS_ID","PUNS_ID","baseline_date","baseline_time","session_day","session_slot","experiment_start","browser","screen_width","screen_height","timezone_offset","view_history","rt","stimulus","response","trial_number","left_word","right_word","valence","left_base_rating","right_base_rating","left_valence","right_valence","abs_diff","participant_response","chosen_side","valid_response","which_experiment_phase"
"pavlovia","0","1383","0.0-0.0","","1001","2025-09-22","21:22:42.054Z","day5","morning","2025-09-26T04:16:13.692Z","Mozilla/5.0 (iPhone; CPU iPhone OS 17_6_1 like Mac OS X) AppleWebKit/605.1.15 (KHTML, like Gecko) Version/17.6 Mobile/15E148 Safari/604.1","390","663","240","","","","","","","","","","","","","","","","",""
"instructions","1","15954","0.0-1.0","","1001","2025-09-22","21:22:42.054Z","day5","morning","2025-09-26T04:16:13.692Z","Mozilla/5.0 (iPhone; CPU iPhone OS 17_6_1 like Mac OS X) AppleWebKit/605.1.15 (KHTML, like Gecko) Version/17.6 Mobile/15E148 Safari/604.1","390","663","240","[{""page_index"":0,""viewing_time"":3192},{""page_index"":1,""viewing_time"":3104},{""page_index"":2,""viewing_time"":6263},{""page_index"":3,""viewing_time"":2001}]","14562","","","","","","","","","","","","","","",""
"html-button-response","2","17528","0.0-2.0-0.0","","1001","2025-09-22","21:22:42.054Z","day5","morning","2025-09-26T04:16:13.692Z","Mozilla/5.0 (iPhone; CPU iPhone OS 17_6_1 like Mac OS X) AppleWebKit/605.1.15 (KHTML, like Gecko) Version/17.6 Mobile/15E148 Safari/604.1","390","663","240","","1570","<div class=""prompt"">Which word describes you more?</div>","1","1","empty","achiever","PosNeg","93","18","negative","positive","75","achiever","right","true","pairing"
"html-button-response","3","25533","0.0-2.0-0.1","","1001","2025-09-22","21:22:42.054Z","day5","morning","2025-09-26T04:16:13.692Z","Mozilla/5.0 (iPhone; CPU iPhone OS 17_6_1 like Mac OS X) AppleWebKit/605.1.15 (KHTML, like Gecko) Version/17.6 Mobile/15E148 Safari/604.1","390","663","240","","null","<div class=""prompt"">Which word describes you more?</div>","null","2","jerk","spontaneous","PosNeg","46","55","negative","positive","9","null","null","false","pairing"
"html-button-response","4","33539","0.0-2.0-0.2","","1001","2025-09-22","21:22:42.054Z","day5","morning","2025-09-26T04:16:13.692Z","Mozilla/5.0 (iPhone; CPU iPhone OS 17_6_1 like Mac OS X) AppleWebKit/605.1.15 (KHTML, like Gecko) Version/17.6 Mobile/15E148 Safari/604.1","390","663","240","","null","<div class=""prompt"">Which word describes you more?</div>","null","3","degenerate","visionary","PosNeg","66","52","negative","positive","14","null","null","false","pairing"
"html-button-response","5","41543","0.0-2.0-0.3","","1001","2025-09-22","21:22:42.054Z","day5","morning","2025-09-26T04:16:13.692Z","Mozilla/5.0 (iPhone; CPU iPhone OS 17_6_1 like Mac OS X) AppleWebKit/605.1.15 (KHTML, like Gecko) Version/17.6 Mobile/15E148 Safari/604.1","390","663","240","","null","<div class=""prompt"">Which word describes you more?</div>","null","4","valued","alluring","PosPos","38","74","positive","positive","36","null","null","false","pairing"
"html-button-response","6","44464","0.0-2.0-0.4","","1001","2025-09-22","21:22:42.054Z","day5","morning","2025-09-26T04:16:13.692Z","Mozilla/5.0 (iPhone; CPU iPhone OS 17_6_1 like Mac OS X) AppleWebKit/605.1.15 (KHTML, like Gecko) Version/17.6 Mobile/15E148 Safari/604.1","390","663","240","","2918","<div class=""prompt"">Which word describes you more?</div>","1","5","ambitious","incompetent","PosNeg","63","17","positive","negative","46","incompetent","right","true","pairing"
"html-button-response","7","45768","0.0-2.0-0.5","","1001","2025-09-22","21:22:42.054Z","day5","morning","2025-09-26T04:16:13.692Z","Mozilla/5.0 (iPhone; CPU iPhone OS 17_6_1 like Mac OS X) AppleWebKit/605.1.15 (KHTML, like Gecko) Version/17.6 Mobile/15E148 Safari/604.1","390","663","240","","1302","<div class=""prompt"">Which word describes you more?</div>","1","6","untrustworthy","valued","PosNeg","51","38","negative","positive","13","valued","right","true","pairing"
"html-button-response","8","46602","0.0-2.0-0.6","","1001","2025-09-22","21:22:42.054Z","day5","morning","2025-09-26T04:16:13.692Z","Mozilla/5.0 (iPhone; CPU iPhone OS 17_6_1 like Mac OS X) AppleWebKit/605.1.15 (KHTML, like Gecko) Version/17.6 Mobile/15E148 Safari/604.1","390","663","240","","832","<div class=""prompt"">Which word describes you more?</div>","0","7","bitter","defective","NegNeg","67","17","negative","negative","50","bitter","left","true","pairing"
"html-button-response","9","47304","0.0-2.0-0.7","","1001","2025-09-22","21:22:42.054Z","day5","morning","2025-09-26T04:16:13.692Z","Mozilla/5.0 (iPhone; CPU iPhone OS 17_6_1 like Mac OS X) AppleWebKit/605.1.15 (KHTML, like Gecko) Version/17.6 Mobile/15E148 Safari/604.1","390","663","240","","700","<div class=""prompt"">Which word describes you more?</div>","1","8","humorous","fun","PosPos","55","61","positive","positive","6","fun","right","true","pairing"
"html-button-response","10","47872","0.0-2.0-0.8","","1001","2025-09-22","21:22:42.054Z","day5","morning","2025-09-26T04:16:13.692Z","Mozilla/5.0 (iPhone; CPU iPhone OS 17_6_1 like Mac OS X) AppleWebKit/605.1.15 (KHTML, like Gecko) Version/17.6 Mobile/15E148 Safari/604.1","390","663","240","","566","<div class=""prompt"">Which word describes you more?</div>","0","9","devoted","outcast","PosNeg","30","68","positive","negative","38","devoted","left","true","pairing"
"html-button-response","11","48641","0.0-2.0-0.9","","1001","2025-09-22","21:22:42.054Z","day5","morning","2025-09-26T04:16:13.692Z","Mozilla/5.0 (iPhone; CPU iPhone OS 17_6_1 like Mac OS X) AppleWebKit/605.1.15 (KHTML, like Gecko) Version/17.6 Mobile/15E148 Safari/604.1","390","663","240","","766","<div class=""prompt"">Which word describes you more?</div>","1","10","valued","hesitant","PosNeg","38","58","positive","negative","20","hesitant","right","true","pairing"
"html-button-response","12","50094","0.0-2.0-0.10","","1001","2025-09-22","21:22:42.054Z","day5","morning","2025-09-26T04:16:13.692Z","Mozilla/5.0 (iPhone; CPU iPhone OS 17_6_1 like Mac OS X) AppleWebKit/605.1.15 (KHTML, like Gecko) Version/17.6 Mobile/15E148 Safari/604.1","390","663","240","","1451","<div class=""prompt"">Which word describes you more?</div>","0","11","humorous","anxious","PosNeg","55","63","positive","negative","8","humorous","left","true","pairing"
"html-button-response","13","50663","0.0-2.0-0.11","","1001","2025-09-22","21:22:42.054Z","day5","morning","2025-09-26T04:16:13.692Z","Mozilla/5.0 (iPhone; CPU iPhone OS 17_6_1 like Mac OS X) AppleWebKit/605.1.15 (KHTML, like Gecko) Version/17.6 Mobile/15E148 Safari/604.1","390","663","240","","566","<div class=""prompt"">Which word describes you more?</div>","1","12","shameful","devoted","PosNeg","61","30","negative","positive","31","devoted","right","true","pairing"
"html-button-response","14","51244","0.0-2.0-0.12","","1001","2025-09-22","21:22:42.054Z","day5","morning","2025-09-26T04:16:13.692Z","Mozilla/5.0 (iPhone; CPU iPhone OS 17_6_1 like Mac OS X) AppleWebKit/605.1.15 (KHTML, like Gecko) Version/17.6 Mobile/15E148 Safari/604.1","390","663","240","","579","<div class=""prompt"">Which word describes you more?</div>","1","13","regretful","fun","PosNeg","8","61","negative","positive","53","fun","right","true","pairing"
"html-button-response","15","52032","0.0-2.0-0.13","","1001","2025-09-22","21:22:42.054Z","day5","morning","2025-09-26T04:16:13.692Z","Mozilla/5.0 (iPhone; CPU iPhone OS 17_6_1 like Mac OS X) AppleWebKit/605.1.15 (KHTML, like Gecko) Version/17.6 Mobile/15E148 Safari/604.1","390","663","240","","785","<div class=""prompt"">Which word describes you more?</div>","0","14","seeker","gloomy","PosNeg","20","18","positive","negative","2","seeker","left","true","pairing"
"html-button-response","16","52463","0.0-2.0-0.14","","1001","2025-09-22","21:22:42.054Z","day5","morning","2025-09-26T04:16:13.692Z","Mozilla/5.0 (iPhone; CPU iPhone OS 17_6_1 like Mac OS X) AppleWebKit/605.1.15 (KHTML, like Gecko) Version/17.6 Mobile/15E148 Safari/604.1","390","663","240","","429","<div class=""prompt"">Which word describes you more?</div>","1","15","miserable","asset","PosNeg","20","48","negative","positive","28","asset","right","true","pairing"
"html-button-response","17","53168","0.0-2.0-0.15","","1001","2025-09-22","21:22:42.054Z","day5","morning","2025-09-26T04:16:13.692Z","Mozilla/5.0 (iPhone; CPU iPhone OS 17_6_1 like Mac OS X) AppleWebKit/605.1.15 (KHTML, like Gecko) Version/17.6 Mobile/15E148 Safari/604.1","390","663","240","","703","<div class=""prompt"">Which word describes you more?</div>","1","16","disgusting","adventurous","PosNeg","49","48","negative","positive","1","adventurous","right","true","pairing"
"html-button-response","18","53753","0.0-2.0-0.16","","1001","2025-09-22","21:22:42.054Z","day5","morning","2025-09-26T04:16:13.692Z","Mozilla/5.0 (iPhone; CPU iPhone OS 17_6_1 like Mac OS X) AppleWebKit/605.1.15 (KHTML, like Gecko) Version/17.6 Mobile/15E148 Safari/604.1","390","663","240","","583","<div class=""prompt"">Which word describes you more?</div>","0","17","garbage","brave","PosNeg","81","44","negative","positive","37","garbage","left","true","pairing"
"html-button-response","19","54220","0.0-2.0-0.17","","1001","2025-09-22","21:22:42.054Z","day5","morning","2025-09-26T04:16:13.692Z","Mozilla/5.0 (iPhone; CPU iPhone OS 17_6_1 like Mac OS X) AppleWebKit/605.1.15 (KHTML, like Gecko) Version/17.6 Mobile/15E148 Safari/604.1","390","663","240","","465","<div class=""prompt"">Which word describes you more?</div>","1","18","easygoing","failure","PosNeg","48","35","positive","negative","13","failure","right","true","pairing"
"html-button-response","20","54788","0.0-2.0-0.18","","1001","2025-09-22","21:22:42.054Z","day5","morning","2025-09-26T04:16:13.692Z","Mozilla/5.0 (iPhone; CPU iPhone OS 17_6_1 like Mac OS X) AppleWebKit/605.1.15 (KHTML, like Gecko) Version/17.6 Mobile/15E148 Safari/604.1","390","663","240","","566","<div class=""prompt"">Which word describes you more?</div>","1","19","disastrous","menace","NegNeg","71","49","negative","negative","22","menace","right","true","pairing"
"html-button-response","21","55257","0.0-2.0-0.19","","1001","2025-09-22","21:22:42.054Z","day5","morning","2025-09-26T04:16:13.692Z","Mozilla/5.0 (iPhone; CPU iPhone OS 17_6_1 like Mac OS X) AppleWebKit/605.1.15 (KHTML, like Gecko) Version/17.6 Mobile/15E148 Safari/604.1","390","663","240","","466","<div class=""prompt"">Which word describes you more?</div>","0","20","witty","garbage","PosNeg","13","81","positive","negative","68","witty","left","true","pairing"
"instructions","22","57076","0.0-3.0","","1001","2025-09-22","21:22:42.054Z","day5","morning","2025-09-26T04:16:13.692Z","Mozilla/5.0 (iPhone; CPU iPhone OS 17_6_1 like Mac OS X) AppleWebKit/605.1.15 (KHTML, like Gecko) Version/17.6 Mobile/15E148 Safari/604.1","390","663","240","[{""page_index"":0,""viewing_time"":1815}]","1816","","","","","","","","","","","","","","",""
