"trial_type","trial_index","time_elapsed","internal_node_id","PUNS_ID","session_number","session_phase","session_day","session_slot","ema_start_date","ema_post_start_date","experiment_start","browser","screen_width","screen_height","timezone_offset","view_history","rt","stimulus","response","which_experiment_phase","trial_number","left_word","right_word","valence","left_base_rating","right_base_rating","left_valence","right_valence","abs_diff","participant_response","chosen_side","valid_response"
"pavlovia","0","1298","0.0-0.0","1032","38","post","3","afternoon","2026-04-15","2026-04-27","2026-04-29T22:29:55.400Z","Mozilla/5.0 (Linux; Android 16; Pixel 9 Pro Build/CP1A.260405.005; wv) AppleWebKit/537.36 (KHTML, like Gecko) Version/4.0 Chrome/147.0.7727.56 Mobile Safari/537.36","394","719","420","","","","","","","","","","","","","","","","",""
"instructions","1","1022147","0.0-1.0","1032","38","post","3","afternoon","2026-04-15","2026-04-27","2026-04-29T22:29:55.400Z","Mozilla/5.0 (Linux; Android 16; Pixel 9 Pro Build/CP1A.260405.005; wv) AppleWebKit/537.36 (KHTML, like Gecko) Version/4.0 Chrome/147.0.7727.56 Mobile Safari/537.36","394","719","420","[{""page_index"":0,""viewing_time"":2217},{""page_index"":1,""viewing_time"":1322},{""page_index"":2,""viewing_time"":911911},{""page_index"":3,""viewing_time"":757}]","916211","","","","","","","","","","","","","","",""
"html-keyboard-response","2","1022959","0.0-2.0-0.0","1032","38","post","3","afternoon","2026-04-15","2026-04-27","2026-04-29T22:29:55.400Z","Mozilla/5.0 (Linux; Android 16; Pixel 9 Pro Build/CP1A.260405.005; wv) AppleWebKit/537.36 (KHTML, like Gecko) Version/4.0 Chrome/147.0.7727.56 Mobile Safari/537.36","394","719","420","","null","<div style=""font-size:60px;"">+</div>","null","fixation","","","","","","","","","","","",""
"html-button-response","3","1027971","0.0-2.0-1.0","1032","38","post","3","afternoon","2026-04-15","2026-04-27","2026-04-29T22:29:55.400Z","Mozilla/5.0 (Linux; Android 16; Pixel 9 Pro Build/CP1A.260405.005; wv) AppleWebKit/537.36 (KHTML, like Gecko) Version/4.0 Chrome/147.0.7727.56 Mobile Safari/537.36","394","719","420","","null","<div class=""prompt"" style=""font-size:24px; margin-bottom:20px;"">Which word describes you more?</div>","null","pairing","1","empty","clever","PosNeg","17","8","negative","positive","9","null","null","false"
"html-keyboard-response","4","1028777","0.0-2.0-0.1","1032","38","post","3","afternoon","2026-04-15","2026-04-27","2026-04-29T22:29:55.400Z","Mozilla/5.0 (Linux; Android 16; Pixel 9 Pro Build/CP1A.260405.005; wv) AppleWebKit/537.36 (KHTML, like Gecko) Version/4.0 Chrome/147.0.7727.56 Mobile Safari/537.36","394","719","420","","null","<div style=""font-size:60px;"">+</div>","null","fixation","","","","","","","","","","","",""
"html-button-response","5","1030986","0.0-2.0-1.1","1032","38","post","3","afternoon","2026-04-15","2026-04-27","2026-04-29T22:29:55.400Z","Mozilla/5.0 (Linux; Android 16; Pixel 9 Pro Build/CP1A.260405.005; wv) AppleWebKit/537.36 (KHTML, like Gecko) Version/4.0 Chrome/147.0.7727.56 Mobile Safari/537.36","394","719","420","","2201","<div class=""prompt"" style=""font-size:24px; margin-bottom:20px;"">Which word describes you more?</div>","0","pairing","2","carefree","outcast","PosNeg","77","50","positive","negative","27","carefree","left","true"
"html-keyboard-response","6","1031787","0.0-2.0-0.2","1032","38","post","3","afternoon","2026-04-15","2026-04-27","2026-04-29T22:29:55.400Z","Mozilla/5.0 (Linux; Android 16; Pixel 9 Pro Build/CP1A.260405.005; wv) AppleWebKit/537.36 (KHTML, like Gecko) Version/4.0 Chrome/147.0.7727.56 Mobile Safari/537.36","394","719","420","","null","<div style=""font-size:60px;"">+</div>","null","fixation","","","","","","","","","","","",""
"html-button-response","7","1032916","0.0-2.0-1.2","1032","38","post","3","afternoon","2026-04-15","2026-04-27","2026-04-29T22:29:55.400Z","Mozilla/5.0 (Linux; Android 16; Pixel 9 Pro Build/CP1A.260405.005; wv) AppleWebKit/537.36 (KHTML, like Gecko) Version/4.0 Chrome/147.0.7727.56 Mobile Safari/537.36","394","719","420","","1126","<div class=""prompt"" style=""font-size:24px; margin-bottom:20px;"">Which word describes you more?</div>","1","pairing","3","pest","healthy","PosNeg","0","96","negative","positive","96","healthy","right","true"
"html-keyboard-response","8","1033720","0.0-2.0-0.3","1032","38","post","3","afternoon","2026-04-15","2026-04-27","2026-04-29T22:29:55.400Z","Mozilla/5.0 (Linux; Android 16; Pixel 9 Pro Build/CP1A.260405.005; wv) AppleWebKit/537.36 (KHTML, like Gecko) Version/4.0 Chrome/147.0.7727.56 Mobile Safari/537.36","394","719","420","","null","<div style=""font-size:60px;"">+</div>","null","fixation","","","","","","","","","","","",""
"html-button-response","9","1035523","0.0-2.0-1.3","1032","38","post","3","afternoon","2026-04-15","2026-04-27","2026-04-29T22:29:55.400Z","Mozilla/5.0 (Linux; Android 16; Pixel 9 Pro Build/CP1A.260405.005; wv) AppleWebKit/537.36 (KHTML, like Gecko) Version/4.0 Chrome/147.0.7727.56 Mobile Safari/537.36","394","719","420","","1796","<div class=""prompt"" style=""font-size:24px; margin-bottom:20px;"">Which word describes you more?</div>","0","pairing","4","expert","peaceful","PosPos","100","60","positive","positive","40","expert","left","true"
"html-keyboard-response","10","1036327","0.0-2.0-0.4","1032","38","post","3","afternoon","2026-04-15","2026-04-27","2026-04-29T22:29:55.400Z","Mozilla/5.0 (Linux; Android 16; Pixel 9 Pro Build/CP1A.260405.005; wv) AppleWebKit/537.36 (KHTML, like Gecko) Version/4.0 Chrome/147.0.7727.56 Mobile Safari/537.36","394","719","420","","null","<div style=""font-size:60px;"">+</div>","null","fixation","","","","","","","","","","","",""
"html-button-response","11","1039729","0.0-2.0-1.4","1032","38","post","3","afternoon","2026-04-15","2026-04-27","2026-04-29T22:29:55.400Z","Mozilla/5.0 (Linux; Android 16; Pixel 9 Pro Build/CP1A.260405.005; wv) AppleWebKit/537.36 (KHTML, like Gecko) Version/4.0 Chrome/147.0.7727.56 Mobile Safari/537.36","394","719","420","","3395","<div class=""prompt"" style=""font-size:24px; margin-bottom:20px;"">Which word describes you more?</div>","1","pairing","5","cruel","unlucky","NegNeg","0","36","negative","negative","36","unlucky","right","true"
"html-keyboard-response","12","1040532","0.0-2.0-0.5","1032","38","post","3","afternoon","2026-04-15","2026-04-27","2026-04-29T22:29:55.400Z","Mozilla/5.0 (Linux; Android 16; Pixel 9 Pro Build/CP1A.260405.005; wv) AppleWebKit/537.36 (KHTML, like Gecko) Version/4.0 Chrome/147.0.7727.56 Mobile Safari/537.36","394","719","420","","null","<div style=""font-size:60px;"">+</div>","null","fixation","","","","","","","","","","","",""
"html-button-response","13","1045084","0.0-2.0-1.5","1032","38","post","3","afternoon","2026-04-15","2026-04-27","2026-04-29T22:29:55.400Z","Mozilla/5.0 (Linux; Android 16; Pixel 9 Pro Build/CP1A.260405.005; wv) AppleWebKit/537.36 (KHTML, like Gecko) Version/4.0 Chrome/147.0.7727.56 Mobile Safari/537.36","394","719","420","","4547","<div class=""prompt"" style=""font-size:24px; margin-bottom:20px;"">Which word describes you more?</div>","0","pairing","6","smart","honest","PosPos","100","88","positive","positive","12","smart","left","true"
"html-keyboard-response","14","1045888","0.0-2.0-0.6","1032","38","post","3","afternoon","2026-04-15","2026-04-27","2026-04-29T22:29:55.400Z","Mozilla/5.0 (Linux; Android 16; Pixel 9 Pro Build/CP1A.260405.005; wv) AppleWebKit/537.36 (KHTML, like Gecko) Version/4.0 Chrome/147.0.7727.56 Mobile Safari/537.36","394","719","420","","null","<div style=""font-size:60px;"">+</div>","null","fixation","","","","","","","","","","","",""
"html-button-response","15","1047289","0.0-2.0-1.6","1032","38","post","3","afternoon","2026-04-15","2026-04-27","2026-04-29T22:29:55.400Z","Mozilla/5.0 (Linux; Android 16; Pixel 9 Pro Build/CP1A.260405.005; wv) AppleWebKit/537.36 (KHTML, like Gecko) Version/4.0 Chrome/147.0.7727.56 Mobile Safari/537.36","394","719","420","","1394","<div class=""prompt"" style=""font-size:24px; margin-bottom:20px;"">Which word describes you more?</div>","1","pairing","7","repulsive","humorous","PosNeg","3","64","negative","positive","61","humorous","right","true"
"html-keyboard-response","16","1048093","0.0-2.0-0.7","1032","38","post","3","afternoon","2026-04-15","2026-04-27","2026-04-29T22:29:55.400Z","Mozilla/5.0 (Linux; Android 16; Pixel 9 Pro Build/CP1A.260405.005; wv) AppleWebKit/537.36 (KHTML, like Gecko) Version/4.0 Chrome/147.0.7727.56 Mobile Safari/537.36","394","719","420","","null","<div style=""font-size:60px;"">+</div>","null","fixation","","","","","","","","","","","",""
"html-button-response","17","1050641","0.0-2.0-1.7","1032","38","post","3","afternoon","2026-04-15","2026-04-27","2026-04-29T22:29:55.400Z","Mozilla/5.0 (Linux; Android 16; Pixel 9 Pro Build/CP1A.260405.005; wv) AppleWebKit/537.36 (KHTML, like Gecko) Version/4.0 Chrome/147.0.7727.56 Mobile Safari/537.36","394","719","420","","2534","<div class=""prompt"" style=""font-size:24px; margin-bottom:20px;"">Which word describes you more?</div>","1","pairing","8","awkward","courteous","PosNeg","60","87","negative","positive","27","courteous","right","true"
"html-keyboard-response","18","1051445","0.0-2.0-0.8","1032","38","post","3","afternoon","2026-04-15","2026-04-27","2026-04-29T22:29:55.400Z","Mozilla/5.0 (Linux; Android 16; Pixel 9 Pro Build/CP1A.260405.005; wv) AppleWebKit/537.36 (KHTML, like Gecko) Version/4.0 Chrome/147.0.7727.56 Mobile Safari/537.36","394","719","420","","null","<div style=""font-size:60px;"">+</div>","null","fixation","","","","","","","","","","","",""
"html-button-response","19","1056159","0.0-2.0-1.8","1032","38","post","3","afternoon","2026-04-15","2026-04-27","2026-04-29T22:29:55.400Z","Mozilla/5.0 (Linux; Android 16; Pixel 9 Pro Build/CP1A.260405.005; wv) AppleWebKit/537.36 (KHTML, like Gecko) Version/4.0 Chrome/147.0.7727.56 Mobile Safari/537.36","394","719","420","","4704","<div class=""prompt"" style=""font-size:24px; margin-bottom:20px;"">Which word describes you more?</div>","0","pairing","9","dull","hopeless","NegNeg","3","2","negative","negative","1","dull","left","true"
"html-keyboard-response","20","1056963","0.0-2.0-0.9","1032","38","post","3","afternoon","2026-04-15","2026-04-27","2026-04-29T22:29:55.400Z","Mozilla/5.0 (Linux; Android 16; Pixel 9 Pro Build/CP1A.260405.005; wv) AppleWebKit/537.36 (KHTML, like Gecko) Version/4.0 Chrome/147.0.7727.56 Mobile Safari/537.36","394","719","420","","null","<div style=""font-size:60px;"">+</div>","null","fixation","","","","","","","","","","","",""
"html-button-response","21","1060790","0.0-2.0-1.9","1032","38","post","3","afternoon","2026-04-15","2026-04-27","2026-04-29T22:29:55.400Z","Mozilla/5.0 (Linux; Android 16; Pixel 9 Pro Build/CP1A.260405.005; wv) AppleWebKit/537.36 (KHTML, like Gecko) Version/4.0 Chrome/147.0.7727.56 Mobile Safari/537.36","394","719","420","","3821","<div class=""prompt"" style=""font-size:24px; margin-bottom:20px;"">Which word describes you more?</div>","1","pairing","10","fraud","goodwilled","PosNeg","2","95","negative","positive","93","goodwilled","right","true"
"html-keyboard-response","22","1061592","0.0-2.0-0.10","1032","38","post","3","afternoon","2026-04-15","2026-04-27","2026-04-29T22:29:55.400Z","Mozilla/5.0 (Linux; Android 16; Pixel 9 Pro Build/CP1A.260405.005; wv) AppleWebKit/537.36 (KHTML, like Gecko) Version/4.0 Chrome/147.0.7727.56 Mobile Safari/537.36","394","719","420","","null","<div style=""font-size:60px;"">+</div>","null","fixation","","","","","","","","","","","",""
"html-button-response","23","1064405","0.0-2.0-1.10","1032","38","post","3","afternoon","2026-04-15","2026-04-27","2026-04-29T22:29:55.400Z","Mozilla/5.0 (Linux; Android 16; Pixel 9 Pro Build/CP1A.260405.005; wv) AppleWebKit/537.36 (KHTML, like Gecko) Version/4.0 Chrome/147.0.7727.56 Mobile Safari/537.36","394","719","420","","2808","<div class=""prompt"" style=""font-size:24px; margin-bottom:20px;"">Which word describes you more?</div>","0","pairing","11","committed","unbearable","PosNeg","94","2","positive","negative","92","committed","left","true"
"html-keyboard-response","24","1065208","0.0-2.0-0.11","1032","38","post","3","afternoon","2026-04-15","2026-04-27","2026-04-29T22:29:55.400Z","Mozilla/5.0 (Linux; Android 16; Pixel 9 Pro Build/CP1A.260405.005; wv) AppleWebKit/537.36 (KHTML, like Gecko) Version/4.0 Chrome/147.0.7727.56 Mobile Safari/537.36","394","719","420","","null","<div style=""font-size:60px;"">+</div>","null","fixation","","","","","","","","","","","",""
"html-button-response","25","1068306","0.0-2.0-1.11","1032","38","post","3","afternoon","2026-04-15","2026-04-27","2026-04-29T22:29:55.400Z","Mozilla/5.0 (Linux; Android 16; Pixel 9 Pro Build/CP1A.260405.005; wv) AppleWebKit/537.36 (KHTML, like Gecko) Version/4.0 Chrome/147.0.7727.56 Mobile Safari/537.36","394","719","420","","3093","<div class=""prompt"" style=""font-size:24px; margin-bottom:20px;"">Which word describes you more?</div>","0","pairing","12","charming","violent","PosNeg","72","12","positive","negative","60","charming","left","true"
"html-keyboard-response","26","1069109","0.0-2.0-0.12","1032","38","post","3","afternoon","2026-04-15","2026-04-27","2026-04-29T22:29:55.400Z","Mozilla/5.0 (Linux; Android 16; Pixel 9 Pro Build/CP1A.260405.005; wv) AppleWebKit/537.36 (KHTML, like Gecko) Version/4.0 Chrome/147.0.7727.56 Mobile Safari/537.36","394","719","420","","null","<div style=""font-size:60px;"">+</div>","null","fixation","","","","","","","","","","","",""
"html-button-response","27","1074114","0.0-2.0-1.12","1032","38","post","3","afternoon","2026-04-15","2026-04-27","2026-04-29T22:29:55.400Z","Mozilla/5.0 (Linux; Android 16; Pixel 9 Pro Build/CP1A.260405.005; wv) AppleWebKit/537.36 (KHTML, like Gecko) Version/4.0 Chrome/147.0.7727.56 Mobile Safari/537.36","394","719","420","","null","<div class=""prompt"" style=""font-size:24px; margin-bottom:20px;"">Which word describes you more?</div>","null","pairing","13","cruel","worthless","NegNeg","0","2","negative","negative","2","null","null","false"
"html-keyboard-response","28","1074917","0.0-2.0-0.13","1032","38","post","3","afternoon","2026-04-15","2026-04-27","2026-04-29T22:29:55.400Z","Mozilla/5.0 (Linux; Android 16; Pixel 9 Pro Build/CP1A.260405.005; wv) AppleWebKit/537.36 (KHTML, like Gecko) Version/4.0 Chrome/147.0.7727.56 Mobile Safari/537.36","394","719","420","","null","<div style=""font-size:60px;"">+</div>","null","fixation","","","","","","","","","","","",""
"html-button-response","29","1076907","0.0-2.0-1.13","1032","38","post","3","afternoon","2026-04-15","2026-04-27","2026-04-29T22:29:55.400Z","Mozilla/5.0 (Linux; Android 16; Pixel 9 Pro Build/CP1A.260405.005; wv) AppleWebKit/537.36 (KHTML, like Gecko) Version/4.0 Chrome/147.0.7727.56 Mobile Safari/537.36","394","719","420","","1986","<div class=""prompt"" style=""font-size:24px; margin-bottom:20px;"">Which word describes you more?</div>","0","pairing","14","easygoing","unlucky","PosNeg","34","36","positive","negative","2","easygoing","left","true"
"html-keyboard-response","30","1077710","0.0-2.0-0.14","1032","38","post","3","afternoon","2026-04-15","2026-04-27","2026-04-29T22:29:55.400Z","Mozilla/5.0 (Linux; Android 16; Pixel 9 Pro Build/CP1A.260405.005; wv) AppleWebKit/537.36 (KHTML, like Gecko) Version/4.0 Chrome/147.0.7727.56 Mobile Safari/537.36","394","719","420","","null","<div style=""font-size:60px;"">+</div>","null","fixation","","","","","","","","","","","",""
"html-button-response","31","1081178","0.0-2.0-1.14","1032","38","post","3","afternoon","2026-04-15","2026-04-27","2026-04-29T22:29:55.400Z","Mozilla/5.0 (Linux; Android 16; Pixel 9 Pro Build/CP1A.260405.005; wv) AppleWebKit/537.36 (KHTML, like Gecko) Version/4.0 Chrome/147.0.7727.56 Mobile Safari/537.36","394","719","420","","3461","<div class=""prompt"" style=""font-size:24px; margin-bottom:20px;"">Which word describes you more?</div>","0","pairing","15","credible","awkward","PosNeg","100","60","positive","negative","40","credible","left","true"
"html-keyboard-response","32","1081980","0.0-2.0-0.15","1032","38","post","3","afternoon","2026-04-15","2026-04-27","2026-04-29T22:29:55.400Z","Mozilla/5.0 (Linux; Android 16; Pixel 9 Pro Build/CP1A.260405.005; wv) AppleWebKit/537.36 (KHTML, like Gecko) Version/4.0 Chrome/147.0.7727.56 Mobile Safari/537.36","394","719","420","","null","<div style=""font-size:60px;"">+</div>","null","fixation","","","","","","","","","","","",""
"html-button-response","33","1086676","0.0-2.0-1.15","1032","38","post","3","afternoon","2026-04-15","2026-04-27","2026-04-29T22:29:55.400Z","Mozilla/5.0 (Linux; Android 16; Pixel 9 Pro Build/CP1A.260405.005; wv) AppleWebKit/537.36 (KHTML, like Gecko) Version/4.0 Chrome/147.0.7727.56 Mobile Safari/537.36","394","719","420","","4692","<div class=""prompt"" style=""font-size:24px; margin-bottom:20px;"">Which word describes you more?</div>","0","pairing","16","unwanted","incompetent","NegNeg","0","0","negative","negative","0","unwanted","left","true"
"html-keyboard-response","34","1087479","0.0-2.0-0.16","1032","38","post","3","afternoon","2026-04-15","2026-04-27","2026-04-29T22:29:55.400Z","Mozilla/5.0 (Linux; Android 16; Pixel 9 Pro Build/CP1A.260405.005; wv) AppleWebKit/537.36 (KHTML, like Gecko) Version/4.0 Chrome/147.0.7727.56 Mobile Safari/537.36","394","719","420","","null","<div style=""font-size:60px;"">+</div>","null","fixation","","","","","","","","","","","",""
"html-button-response","35","1089762","0.0-2.0-1.16","1032","38","post","3","afternoon","2026-04-15","2026-04-27","2026-04-29T22:29:55.400Z","Mozilla/5.0 (Linux; Android 16; Pixel 9 Pro Build/CP1A.260405.005; wv) AppleWebKit/537.36 (KHTML, like Gecko) Version/4.0 Chrome/147.0.7727.56 Mobile Safari/537.36","394","719","420","","2276","<div class=""prompt"" style=""font-size:24px; margin-bottom:20px;"">Which word describes you more?</div>","1","pairing","17","menace","arrogant","NegNeg","0","10","negative","negative","10","arrogant","right","true"
"html-keyboard-response","36","1090565","0.0-2.0-0.17","1032","38","post","3","afternoon","2026-04-15","2026-04-27","2026-04-29T22:29:55.400Z","Mozilla/5.0 (Linux; Android 16; Pixel 9 Pro Build/CP1A.260405.005; wv) AppleWebKit/537.36 (KHTML, like Gecko) Version/4.0 Chrome/147.0.7727.56 Mobile Safari/537.36","394","719","420","","null","<div style=""font-size:60px;"">+</div>","null","fixation","","","","","","","","","","","",""
"html-button-response","37","1094927","0.0-2.0-1.17","1032","38","post","3","afternoon","2026-04-15","2026-04-27","2026-04-29T22:29:55.400Z","Mozilla/5.0 (Linux; Android 16; Pixel 9 Pro Build/CP1A.260405.005; wv) AppleWebKit/537.36 (KHTML, like Gecko) Version/4.0 Chrome/147.0.7727.56 Mobile Safari/537.36","394","719","420","","4355","<div class=""prompt"" style=""font-size:24px; margin-bottom:20px;"">Which word describes you more?</div>","0","pairing","18","tolerant","boring","PosNeg","97","12","positive","negative","85","tolerant","left","true"
"html-keyboard-response","38","1095730","0.0-2.0-0.18","1032","38","post","3","afternoon","2026-04-15","2026-04-27","2026-04-29T22:29:55.400Z","Mozilla/5.0 (Linux; Android 16; Pixel 9 Pro Build/CP1A.260405.005; wv) AppleWebKit/537.36 (KHTML, like Gecko) Version/4.0 Chrome/147.0.7727.56 Mobile Safari/537.36","394","719","420","","null","<div style=""font-size:60px;"">+</div>","null","fixation","","","","","","","","","","","",""
"html-button-response","39","1100379","0.0-2.0-1.18","1032","38","post","3","afternoon","2026-04-15","2026-04-27","2026-04-29T22:29:55.400Z","Mozilla/5.0 (Linux; Android 16; Pixel 9 Pro Build/CP1A.260405.005; wv) AppleWebKit/537.36 (KHTML, like Gecko) Version/4.0 Chrome/147.0.7727.56 Mobile Safari/537.36","394","719","420","","4644","<div class=""prompt"" style=""font-size:24px; margin-bottom:20px;"">Which word describes you more?</div>","0","pairing","19","outcast","quitter","NegNeg","50","10","negative","negative","40","outcast","left","true"
"html-keyboard-response","40","1101182","0.0-2.0-0.19","1032","38","post","3","afternoon","2026-04-15","2026-04-27","2026-04-29T22:29:55.400Z","Mozilla/5.0 (Linux; Android 16; Pixel 9 Pro Build/CP1A.260405.005; wv) AppleWebKit/537.36 (KHTML, like Gecko) Version/4.0 Chrome/147.0.7727.56 Mobile Safari/537.36","394","719","420","","null","<div style=""font-size:60px;"">+</div>","null","fixation","","","","","","","","","","","",""
"html-button-response","41","1103021","0.0-2.0-1.19","1032","38","post","3","afternoon","2026-04-15","2026-04-27","2026-04-29T22:29:55.400Z","Mozilla/5.0 (Linux; Android 16; Pixel 9 Pro Build/CP1A.260405.005; wv) AppleWebKit/537.36 (KHTML, like Gecko) Version/4.0 Chrome/147.0.7727.56 Mobile Safari/537.36","394","719","420","","1835","<div class=""prompt"" style=""font-size:24px; margin-bottom:20px;"">Which word describes you more?</div>","0","pairing","20","sophisticated","clever","PosPos","96","8","positive","positive","88","sophisticated","left","true"
"html-keyboard-response","42","1103824","0.0-2.0-0.20","1032","38","post","3","afternoon","2026-04-15","2026-04-27","2026-04-29T22:29:55.400Z","Mozilla/5.0 (Linux; Android 16; Pixel 9 Pro Build/CP1A.260405.005; wv) AppleWebKit/537.36 (KHTML, like Gecko) Version/4.0 Chrome/147.0.7727.56 Mobile Safari/537.36","394","719","420","","null","<div style=""font-size:60px;"">+</div>","null","fixation","","","","","","","","","","","",""
"html-button-response","43","1106727","0.0-2.0-1.20","1032","38","post","3","afternoon","2026-04-15","2026-04-27","2026-04-29T22:29:55.400Z","Mozilla/5.0 (Linux; Android 16; Pixel 9 Pro Build/CP1A.260405.005; wv) AppleWebKit/537.36 (KHTML, like Gecko) Version/4.0 Chrome/147.0.7727.56 Mobile Safari/537.36","394","719","420","","2898","<div class=""prompt"" style=""font-size:24px; margin-bottom:20px;"">Which word describes you more?</div>","1","pairing","21","spontaneous","reliable","PosPos","49","73","positive","positive","24","reliable","right","true"
"html-keyboard-response","44","1107530","0.0-2.0-0.21","1032","38","post","3","afternoon","2026-04-15","2026-04-27","2026-04-29T22:29:55.400Z","Mozilla/5.0 (Linux; Android 16; Pixel 9 Pro Build/CP1A.260405.005; wv) AppleWebKit/537.36 (KHTML, like Gecko) Version/4.0 Chrome/147.0.7727.56 Mobile Safari/537.36","394","719","420","","null","<div style=""font-size:60px;"">+</div>","null","fixation","","","","","","","","","","","",""
"html-button-response","45","1109626","0.0-2.0-1.21","1032","38","post","3","afternoon","2026-04-15","2026-04-27","2026-04-29T22:29:55.400Z","Mozilla/5.0 (Linux; Android 16; Pixel 9 Pro Build/CP1A.260405.005; wv) AppleWebKit/537.36 (KHTML, like Gecko) Version/4.0 Chrome/147.0.7727.56 Mobile Safari/537.36","394","719","420","","2093","<div class=""prompt"" style=""font-size:24px; margin-bottom:20px;"">Which word describes you more?</div>","0","pairing","22","charming","unbearable","PosNeg","72","2","positive","negative","70","charming","left","true"
"html-keyboard-response","46","1110430","0.0-2.0-0.22","1032","38","post","3","afternoon","2026-04-15","2026-04-27","2026-04-29T22:29:55.400Z","Mozilla/5.0 (Linux; Android 16; Pixel 9 Pro Build/CP1A.260405.005; wv) AppleWebKit/537.36 (KHTML, like Gecko) Version/4.0 Chrome/147.0.7727.56 Mobile Safari/537.36","394","719","420","","null","<div style=""font-size:60px;"">+</div>","null","fixation","","","","","","","","","","","",""
"html-button-response","47","1113944","0.0-2.0-1.22","1032","38","post","3","afternoon","2026-04-15","2026-04-27","2026-04-29T22:29:55.400Z","Mozilla/5.0 (Linux; Android 16; Pixel 9 Pro Build/CP1A.260405.005; wv) AppleWebKit/537.36 (KHTML, like Gecko) Version/4.0 Chrome/147.0.7727.56 Mobile Safari/537.36","394","719","420","","3508","<div class=""prompt"" style=""font-size:24px; margin-bottom:20px;"">Which word describes you more?</div>","1","pairing","23","easygoing","expert","PosPos","34","100","positive","positive","66","expert","right","true"
"html-keyboard-response","48","1114748","0.0-2.0-0.23","1032","38","post","3","afternoon","2026-04-15","2026-04-27","2026-04-29T22:29:55.400Z","Mozilla/5.0 (Linux; Android 16; Pixel 9 Pro Build/CP1A.260405.005; wv) AppleWebKit/537.36 (KHTML, like Gecko) Version/4.0 Chrome/147.0.7727.56 Mobile Safari/537.36","394","719","420","","null","<div style=""font-size:60px;"">+</div>","null","fixation","","","","","","","","","","","",""
"html-button-response","49","1115910","0.0-2.0-1.23","1032","38","post","3","afternoon","2026-04-15","2026-04-27","2026-04-29T22:29:55.400Z","Mozilla/5.0 (Linux; Android 16; Pixel 9 Pro Build/CP1A.260405.005; wv) AppleWebKit/537.36 (KHTML, like Gecko) Version/4.0 Chrome/147.0.7727.56 Mobile Safari/537.36","394","719","420","","1156","<div class=""prompt"" style=""font-size:24px; margin-bottom:20px;"">Which word describes you more?</div>","1","pairing","24","clever","asset","PosPos","8","100","positive","positive","92","asset","right","true"
"instructions","50","1116723","0.0-3.0","1032","38","post","3","afternoon","2026-04-15","2026-04-27","2026-04-29T22:29:55.400Z","Mozilla/5.0 (Linux; Android 16; Pixel 9 Pro Build/CP1A.260405.005; wv) AppleWebKit/537.36 (KHTML, like Gecko) Version/4.0 Chrome/147.0.7727.56 Mobile Safari/537.36","394","719","420","[{""page_index"":0,""viewing_time"":809}]","810","","","","","","","","","","","","","","",""
