"trial_type","trial_index","time_elapsed","internal_node_id","PUNS_ID","session_number","session_phase","session_day","session_slot","ema_start_date","ema_post_start_date","experiment_start","browser","screen_width","screen_height","timezone_offset","view_history","rt","stimulus","response","which_experiment_phase","trial_number","left_word","right_word","valence","left_base_rating","right_base_rating","left_valence","right_valence","abs_diff","participant_response","chosen_side","valid_response"
"pavlovia","0","1718","0.0-0.0","1067","17","pre","6","afternoon","2026-04-08","2026-04-21","2026-04-13T21:06:31.534Z","Mozilla/5.0 (iPhone; CPU iPhone OS 18_7 like Mac OS X) AppleWebKit/605.1.15 (KHTML, like Gecko) Mobile/15E148","358","632","240","","","","","","","","","","","","","","","","",""
"instructions","1","4780","0.0-1.0","1067","17","pre","6","afternoon","2026-04-08","2026-04-21","2026-04-13T21:06:31.534Z","Mozilla/5.0 (iPhone; CPU iPhone OS 18_7 like Mac OS X) AppleWebKit/605.1.15 (KHTML, like Gecko) Mobile/15E148","358","632","240","[{""page_index"":0,""viewing_time"":695},{""page_index"":1,""viewing_time"":463},{""page_index"":2,""viewing_time"":1246},{""page_index"":3,""viewing_time"":650}]","3055","","","","","","","","","","","","","","",""
"html-keyboard-response","2","5584","0.0-2.0-0.0","1067","17","pre","6","afternoon","2026-04-08","2026-04-21","2026-04-13T21:06:31.534Z","Mozilla/5.0 (iPhone; CPU iPhone OS 18_7 like Mac OS X) AppleWebKit/605.1.15 (KHTML, like Gecko) Mobile/15E148","358","632","240","","null","<div style=""font-size:60px;"">+</div>","null","fixation","","","","","","","","","","","",""
"html-button-response","3","6850","0.0-2.0-1.0","1067","17","pre","6","afternoon","2026-04-08","2026-04-21","2026-04-13T21:06:31.534Z","Mozilla/5.0 (iPhone; CPU iPhone OS 18_7 like Mac OS X) AppleWebKit/605.1.15 (KHTML, like Gecko) Mobile/15E148","358","632","240","","1259","<div class=""prompt"" style=""font-size:24px; margin-bottom:20px;"">Which word describes you more?</div>","0","pairing","1","irresponsible","uninvited","NegNeg","41","0","negative","negative","41","irresponsible","left","true"
"html-keyboard-response","4","7653","0.0-2.0-0.1","1067","17","pre","6","afternoon","2026-04-08","2026-04-21","2026-04-13T21:06:31.534Z","Mozilla/5.0 (iPhone; CPU iPhone OS 18_7 like Mac OS X) AppleWebKit/605.1.15 (KHTML, like Gecko) Mobile/15E148","358","632","240","","null","<div style=""font-size:60px;"">+</div>","null","fixation","","","","","","","","","","","",""
"html-button-response","5","8546","0.0-2.0-1.1","1067","17","pre","6","afternoon","2026-04-08","2026-04-21","2026-04-13T21:06:31.534Z","Mozilla/5.0 (iPhone; CPU iPhone OS 18_7 like Mac OS X) AppleWebKit/605.1.15 (KHTML, like Gecko) Mobile/15E148","358","632","240","","888","<div class=""prompt"" style=""font-size:24px; margin-bottom:20px;"">Which word describes you more?</div>","1","pairing","2","patient","friend","PosPos","32","100","positive","positive","68","friend","right","true"
"html-keyboard-response","6","9349","0.0-2.0-0.2","1067","17","pre","6","afternoon","2026-04-08","2026-04-21","2026-04-13T21:06:31.534Z","Mozilla/5.0 (iPhone; CPU iPhone OS 18_7 like Mac OS X) AppleWebKit/605.1.15 (KHTML, like Gecko) Mobile/15E148","358","632","240","","null","<div style=""font-size:60px;"">+</div>","null","fixation","","","","","","","","","","","",""
"html-button-response","7","10228","0.0-2.0-1.2","1067","17","pre","6","afternoon","2026-04-08","2026-04-21","2026-04-13T21:06:31.534Z","Mozilla/5.0 (iPhone; CPU iPhone OS 18_7 like Mac OS X) AppleWebKit/605.1.15 (KHTML, like Gecko) Mobile/15E148","358","632","240","","876","<div class=""prompt"" style=""font-size:24px; margin-bottom:20px;"">Which word describes you more?</div>","0","pairing","3","cooperative","expert","PosPos","88","50","positive","positive","38","cooperative","left","true"
"html-keyboard-response","8","11031","0.0-2.0-0.3","1067","17","pre","6","afternoon","2026-04-08","2026-04-21","2026-04-13T21:06:31.534Z","Mozilla/5.0 (iPhone; CPU iPhone OS 18_7 like Mac OS X) AppleWebKit/605.1.15 (KHTML, like Gecko) Mobile/15E148","358","632","240","","null","<div style=""font-size:60px;"">+</div>","null","fixation","","","","","","","","","","","",""
"html-button-response","9","12147","0.0-2.0-1.3","1067","17","pre","6","afternoon","2026-04-08","2026-04-21","2026-04-13T21:06:31.534Z","Mozilla/5.0 (iPhone; CPU iPhone OS 18_7 like Mac OS X) AppleWebKit/605.1.15 (KHTML, like Gecko) Mobile/15E148","358","632","240","","1114","<div class=""prompt"" style=""font-size:24px; margin-bottom:20px;"">Which word describes you more?</div>","0","pairing","4","anxious","hater","NegNeg","29","75","negative","negative","46","anxious","left","true"
"html-keyboard-response","10","12949","0.0-2.0-0.4","1067","17","pre","6","afternoon","2026-04-08","2026-04-21","2026-04-13T21:06:31.534Z","Mozilla/5.0 (iPhone; CPU iPhone OS 18_7 like Mac OS X) AppleWebKit/605.1.15 (KHTML, like Gecko) Mobile/15E148","358","632","240","","null","<div style=""font-size:60px;"">+</div>","null","fixation","","","","","","","","","","","",""
"html-button-response","11","14130","0.0-2.0-1.4","1067","17","pre","6","afternoon","2026-04-08","2026-04-21","2026-04-13T21:06:31.534Z","Mozilla/5.0 (iPhone; CPU iPhone OS 18_7 like Mac OS X) AppleWebKit/605.1.15 (KHTML, like Gecko) Mobile/15E148","358","632","240","","1178","<div class=""prompt"" style=""font-size:24px; margin-bottom:20px;"">Which word describes you more?</div>","0","pairing","5","companion","patient","PosPos","100","32","positive","positive","68","companion","left","true"
"html-keyboard-response","12","14933","0.0-2.0-0.5","1067","17","pre","6","afternoon","2026-04-08","2026-04-21","2026-04-13T21:06:31.534Z","Mozilla/5.0 (iPhone; CPU iPhone OS 18_7 like Mac OS X) AppleWebKit/605.1.15 (KHTML, like Gecko) Mobile/15E148","358","632","240","","null","<div style=""font-size:60px;"">+</div>","null","fixation","","","","","","","","","","","",""
"html-button-response","13","15997","0.0-2.0-1.5","1067","17","pre","6","afternoon","2026-04-08","2026-04-21","2026-04-13T21:06:31.534Z","Mozilla/5.0 (iPhone; CPU iPhone OS 18_7 like Mac OS X) AppleWebKit/605.1.15 (KHTML, like Gecko) Mobile/15E148","358","632","240","","1061","<div class=""prompt"" style=""font-size:24px; margin-bottom:20px;"">Which word describes you more?</div>","1","pairing","6","vengeful","decisive","PosNeg","73","30","negative","positive","43","decisive","right","true"
"html-keyboard-response","14","16800","0.0-2.0-0.6","1067","17","pre","6","afternoon","2026-04-08","2026-04-21","2026-04-13T21:06:31.534Z","Mozilla/5.0 (iPhone; CPU iPhone OS 18_7 like Mac OS X) AppleWebKit/605.1.15 (KHTML, like Gecko) Mobile/15E148","358","632","240","","null","<div style=""font-size:60px;"">+</div>","null","fixation","","","","","","","","","","","",""
"html-button-response","15","17763","0.0-2.0-1.6","1067","17","pre","6","afternoon","2026-04-08","2026-04-21","2026-04-13T21:06:31.534Z","Mozilla/5.0 (iPhone; CPU iPhone OS 18_7 like Mac OS X) AppleWebKit/605.1.15 (KHTML, like Gecko) Mobile/15E148","358","632","240","","961","<div class=""prompt"" style=""font-size:24px; margin-bottom:20px;"">Which word describes you more?</div>","0","pairing","7","respectable","empty","PosNeg","80","0","positive","negative","80","respectable","left","true"
"html-keyboard-response","16","18566","0.0-2.0-0.7","1067","17","pre","6","afternoon","2026-04-08","2026-04-21","2026-04-13T21:06:31.534Z","Mozilla/5.0 (iPhone; CPU iPhone OS 18_7 like Mac OS X) AppleWebKit/605.1.15 (KHTML, like Gecko) Mobile/15E148","358","632","240","","null","<div style=""font-size:60px;"">+</div>","null","fixation","","","","","","","","","","","",""
"html-button-response","17","19547","0.0-2.0-1.7","1067","17","pre","6","afternoon","2026-04-08","2026-04-21","2026-04-13T21:06:31.534Z","Mozilla/5.0 (iPhone; CPU iPhone OS 18_7 like Mac OS X) AppleWebKit/605.1.15 (KHTML, like Gecko) Mobile/15E148","358","632","240","","976","<div class=""prompt"" style=""font-size:24px; margin-bottom:20px;"">Which word describes you more?</div>","1","pairing","8","degenerate","healthy","PosNeg","0","88","negative","positive","88","healthy","right","true"
"html-keyboard-response","18","20349","0.0-2.0-0.8","1067","17","pre","6","afternoon","2026-04-08","2026-04-21","2026-04-13T21:06:31.534Z","Mozilla/5.0 (iPhone; CPU iPhone OS 18_7 like Mac OS X) AppleWebKit/605.1.15 (KHTML, like Gecko) Mobile/15E148","358","632","240","","null","<div style=""font-size:60px;"">+</div>","null","fixation","","","","","","","","","","","",""
"html-button-response","19","21231","0.0-2.0-1.8","1067","17","pre","6","afternoon","2026-04-08","2026-04-21","2026-04-13T21:06:31.534Z","Mozilla/5.0 (iPhone; CPU iPhone OS 18_7 like Mac OS X) AppleWebKit/605.1.15 (KHTML, like Gecko) Mobile/15E148","358","632","240","","879","<div class=""prompt"" style=""font-size:24px; margin-bottom:20px;"">Which word describes you more?</div>","0","pairing","9","friend","menace","PosNeg","100","78","positive","negative","22","friend","left","true"
"html-keyboard-response","20","22032","0.0-2.0-0.9","1067","17","pre","6","afternoon","2026-04-08","2026-04-21","2026-04-13T21:06:31.534Z","Mozilla/5.0 (iPhone; CPU iPhone OS 18_7 like Mac OS X) AppleWebKit/605.1.15 (KHTML, like Gecko) Mobile/15E148","358","632","240","","null","<div style=""font-size:60px;"">+</div>","null","fixation","","","","","","","","","","","",""
"html-button-response","21","22930","0.0-2.0-1.9","1067","17","pre","6","afternoon","2026-04-08","2026-04-21","2026-04-13T21:06:31.534Z","Mozilla/5.0 (iPhone; CPU iPhone OS 18_7 like Mac OS X) AppleWebKit/605.1.15 (KHTML, like Gecko) Mobile/15E148","358","632","240","","895","<div class=""prompt"" style=""font-size:24px; margin-bottom:20px;"">Which word describes you more?</div>","1","pairing","10","adorable","excited","PosPos","59","88","positive","positive","29","excited","right","true"
"html-keyboard-response","22","23732","0.0-2.0-0.10","1067","17","pre","6","afternoon","2026-04-08","2026-04-21","2026-04-13T21:06:31.534Z","Mozilla/5.0 (iPhone; CPU iPhone OS 18_7 like Mac OS X) AppleWebKit/605.1.15 (KHTML, like Gecko) Mobile/15E148","358","632","240","","null","<div style=""font-size:60px;"">+</div>","null","fixation","","","","","","","","","","","",""
"html-button-response","23","24581","0.0-2.0-1.10","1067","17","pre","6","afternoon","2026-04-08","2026-04-21","2026-04-13T21:06:31.534Z","Mozilla/5.0 (iPhone; CPU iPhone OS 18_7 like Mac OS X) AppleWebKit/605.1.15 (KHTML, like Gecko) Mobile/15E148","358","632","240","","846","<div class=""prompt"" style=""font-size:24px; margin-bottom:20px;"">Which word describes you more?</div>","1","pairing","11","disgusting","respectable","PosNeg","0","80","negative","positive","80","respectable","right","true"
"html-keyboard-response","24","25384","0.0-2.0-0.11","1067","17","pre","6","afternoon","2026-04-08","2026-04-21","2026-04-13T21:06:31.534Z","Mozilla/5.0 (iPhone; CPU iPhone OS 18_7 like Mac OS X) AppleWebKit/605.1.15 (KHTML, like Gecko) Mobile/15E148","358","632","240","","null","<div style=""font-size:60px;"">+</div>","null","fixation","","","","","","","","","","","",""
"html-button-response","25","26398","0.0-2.0-1.11","1067","17","pre","6","afternoon","2026-04-08","2026-04-21","2026-04-13T21:06:31.534Z","Mozilla/5.0 (iPhone; CPU iPhone OS 18_7 like Mac OS X) AppleWebKit/605.1.15 (KHTML, like Gecko) Mobile/15E148","358","632","240","","1012","<div class=""prompt"" style=""font-size:24px; margin-bottom:20px;"">Which word describes you more?</div>","0","pairing","12","awkward","alluring","PosNeg","74","44","negative","positive","30","awkward","left","true"
"html-keyboard-response","26","27200","0.0-2.0-0.12","1067","17","pre","6","afternoon","2026-04-08","2026-04-21","2026-04-13T21:06:31.534Z","Mozilla/5.0 (iPhone; CPU iPhone OS 18_7 like Mac OS X) AppleWebKit/605.1.15 (KHTML, like Gecko) Mobile/15E148","358","632","240","","null","<div style=""font-size:60px;"">+</div>","null","fixation","","","","","","","","","","","",""
"html-button-response","27","28126","0.0-2.0-1.12","1067","17","pre","6","afternoon","2026-04-08","2026-04-21","2026-04-13T21:06:31.534Z","Mozilla/5.0 (iPhone; CPU iPhone OS 18_7 like Mac OS X) AppleWebKit/605.1.15 (KHTML, like Gecko) Mobile/15E148","358","632","240","","924","<div class=""prompt"" style=""font-size:24px; margin-bottom:20px;"">Which word describes you more?</div>","1","pairing","13","unforgivable","arrogant","NegNeg","0","87","negative","negative","87","arrogant","right","true"
"html-keyboard-response","28","28929","0.0-2.0-0.13","1067","17","pre","6","afternoon","2026-04-08","2026-04-21","2026-04-13T21:06:31.534Z","Mozilla/5.0 (iPhone; CPU iPhone OS 18_7 like Mac OS X) AppleWebKit/605.1.15 (KHTML, like Gecko) Mobile/15E148","358","632","240","","null","<div style=""font-size:60px;"">+</div>","null","fixation","","","","","","","","","","","",""
"html-button-response","29","30031","0.0-2.0-1.13","1067","17","pre","6","afternoon","2026-04-08","2026-04-21","2026-04-13T21:06:31.534Z","Mozilla/5.0 (iPhone; CPU iPhone OS 18_7 like Mac OS X) AppleWebKit/605.1.15 (KHTML, like Gecko) Mobile/15E148","358","632","240","","1101","<div class=""prompt"" style=""font-size:24px; margin-bottom:20px;"">Which word describes you more?</div>","0","pairing","14","decisive","hater","PosNeg","30","75","positive","negative","45","decisive","left","true"
"html-keyboard-response","30","30839","0.0-2.0-0.14","1067","17","pre","6","afternoon","2026-04-08","2026-04-21","2026-04-13T21:06:31.534Z","Mozilla/5.0 (iPhone; CPU iPhone OS 18_7 like Mac OS X) AppleWebKit/605.1.15 (KHTML, like Gecko) Mobile/15E148","358","632","240","","null","<div style=""font-size:60px;"">+</div>","null","fixation","","","","","","","","","","","",""
"html-button-response","31","31712","0.0-2.0-1.14","1067","17","pre","6","afternoon","2026-04-08","2026-04-21","2026-04-13T21:06:31.534Z","Mozilla/5.0 (iPhone; CPU iPhone OS 18_7 like Mac OS X) AppleWebKit/605.1.15 (KHTML, like Gecko) Mobile/15E148","358","632","240","","870","<div class=""prompt"" style=""font-size:24px; margin-bottom:20px;"">Which word describes you more?</div>","0","pairing","15","awkward","hateful","NegNeg","74","49","negative","negative","25","awkward","left","true"
"html-keyboard-response","32","32514","0.0-2.0-0.15","1067","17","pre","6","afternoon","2026-04-08","2026-04-21","2026-04-13T21:06:31.534Z","Mozilla/5.0 (iPhone; CPU iPhone OS 18_7 like Mac OS X) AppleWebKit/605.1.15 (KHTML, like Gecko) Mobile/15E148","358","632","240","","null","<div style=""font-size:60px;"">+</div>","null","fixation","","","","","","","","","","","",""
"html-button-response","33","33348","0.0-2.0-1.15","1067","17","pre","6","afternoon","2026-04-08","2026-04-21","2026-04-13T21:06:31.534Z","Mozilla/5.0 (iPhone; CPU iPhone OS 18_7 like Mac OS X) AppleWebKit/605.1.15 (KHTML, like Gecko) Mobile/15E148","358","632","240","","831","<div class=""prompt"" style=""font-size:24px; margin-bottom:20px;"">Which word describes you more?</div>","0","pairing","16","easygoing","clever","PosPos","96","66","positive","positive","30","easygoing","left","true"
"html-keyboard-response","34","34151","0.0-2.0-0.16","1067","17","pre","6","afternoon","2026-04-08","2026-04-21","2026-04-13T21:06:31.534Z","Mozilla/5.0 (iPhone; CPU iPhone OS 18_7 like Mac OS X) AppleWebKit/605.1.15 (KHTML, like Gecko) Mobile/15E148","358","632","240","","null","<div style=""font-size:60px;"">+</div>","null","fixation","","","","","","","","","","","",""
"html-button-response","35","35215","0.0-2.0-1.16","1067","17","pre","6","afternoon","2026-04-08","2026-04-21","2026-04-13T21:06:31.534Z","Mozilla/5.0 (iPhone; CPU iPhone OS 18_7 like Mac OS X) AppleWebKit/605.1.15 (KHTML, like Gecko) Mobile/15E148","358","632","240","","1061","<div class=""prompt"" style=""font-size:24px; margin-bottom:20px;"">Which word describes you more?</div>","1","pairing","17","selfish","unique","PosNeg","50","88","negative","positive","38","unique","right","true"
"html-keyboard-response","36","36018","0.0-2.0-0.17","1067","17","pre","6","afternoon","2026-04-08","2026-04-21","2026-04-13T21:06:31.534Z","Mozilla/5.0 (iPhone; CPU iPhone OS 18_7 like Mac OS X) AppleWebKit/605.1.15 (KHTML, like Gecko) Mobile/15E148","358","632","240","","null","<div style=""font-size:60px;"">+</div>","null","fixation","","","","","","","","","","","",""
"html-button-response","37","37032","0.0-2.0-1.17","1067","17","pre","6","afternoon","2026-04-08","2026-04-21","2026-04-13T21:06:31.534Z","Mozilla/5.0 (iPhone; CPU iPhone OS 18_7 like Mac OS X) AppleWebKit/605.1.15 (KHTML, like Gecko) Mobile/15E148","358","632","240","","1011","<div class=""prompt"" style=""font-size:24px; margin-bottom:20px;"">Which word describes you more?</div>","0","pairing","18","merciful","creep","PosNeg","50","1","positive","negative","49","merciful","left","true"
"html-keyboard-response","38","37834","0.0-2.0-0.18","1067","17","pre","6","afternoon","2026-04-08","2026-04-21","2026-04-13T21:06:31.534Z","Mozilla/5.0 (iPhone; CPU iPhone OS 18_7 like Mac OS X) AppleWebKit/605.1.15 (KHTML, like Gecko) Mobile/15E148","358","632","240","","null","<div style=""font-size:60px;"">+</div>","null","fixation","","","","","","","","","","","",""
"html-button-response","39","38998","0.0-2.0-1.18","1067","17","pre","6","afternoon","2026-04-08","2026-04-21","2026-04-13T21:06:31.534Z","Mozilla/5.0 (iPhone; CPU iPhone OS 18_7 like Mac OS X) AppleWebKit/605.1.15 (KHTML, like Gecko) Mobile/15E148","358","632","240","","1161","<div class=""prompt"" style=""font-size:24px; margin-bottom:20px;"">Which word describes you more?</div>","0","pairing","19","menace","unfaithful","NegNeg","78","0","negative","negative","78","menace","left","true"
"html-keyboard-response","40","39801","0.0-2.0-0.19","1067","17","pre","6","afternoon","2026-04-08","2026-04-21","2026-04-13T21:06:31.534Z","Mozilla/5.0 (iPhone; CPU iPhone OS 18_7 like Mac OS X) AppleWebKit/605.1.15 (KHTML, like Gecko) Mobile/15E148","358","632","240","","null","<div style=""font-size:60px;"">+</div>","null","fixation","","","","","","","","","","","",""
"html-button-response","41","40966","0.0-2.0-1.19","1067","17","pre","6","afternoon","2026-04-08","2026-04-21","2026-04-13T21:06:31.534Z","Mozilla/5.0 (iPhone; CPU iPhone OS 18_7 like Mac OS X) AppleWebKit/605.1.15 (KHTML, like Gecko) Mobile/15E148","358","632","240","","1163","<div class=""prompt"" style=""font-size:24px; margin-bottom:20px;"">Which word describes you more?</div>","0","pairing","20","uninvited","rude","NegNeg","0","20","negative","negative","20","uninvited","left","true"
"html-keyboard-response","42","41768","0.0-2.0-0.20","1067","17","pre","6","afternoon","2026-04-08","2026-04-21","2026-04-13T21:06:31.534Z","Mozilla/5.0 (iPhone; CPU iPhone OS 18_7 like Mac OS X) AppleWebKit/605.1.15 (KHTML, like Gecko) Mobile/15E148","358","632","240","","null","<div style=""font-size:60px;"">+</div>","null","fixation","","","","","","","","","","","",""
"html-button-response","43","43299","0.0-2.0-1.20","1067","17","pre","6","afternoon","2026-04-08","2026-04-21","2026-04-13T21:06:31.534Z","Mozilla/5.0 (iPhone; CPU iPhone OS 18_7 like Mac OS X) AppleWebKit/605.1.15 (KHTML, like Gecko) Mobile/15E148","358","632","240","","1529","<div class=""prompt"" style=""font-size:24px; margin-bottom:20px;"">Which word describes you more?</div>","0","pairing","21","brave","vengeful","PosNeg","64","73","positive","negative","9","brave","left","true"
"html-keyboard-response","44","44102","0.0-2.0-0.21","1067","17","pre","6","afternoon","2026-04-08","2026-04-21","2026-04-13T21:06:31.534Z","Mozilla/5.0 (iPhone; CPU iPhone OS 18_7 like Mac OS X) AppleWebKit/605.1.15 (KHTML, like Gecko) Mobile/15E148","358","632","240","","null","<div style=""font-size:60px;"">+</div>","null","fixation","","","","","","","","","","","",""
"html-button-response","45","45181","0.0-2.0-1.21","1067","17","pre","6","afternoon","2026-04-08","2026-04-21","2026-04-13T21:06:31.534Z","Mozilla/5.0 (iPhone; CPU iPhone OS 18_7 like Mac OS X) AppleWebKit/605.1.15 (KHTML, like Gecko) Mobile/15E148","358","632","240","","1077","<div class=""prompt"" style=""font-size:24px; margin-bottom:20px;"">Which word describes you more?</div>","0","pairing","22","anxious","merciful","PosNeg","29","50","negative","positive","21","anxious","left","true"
"html-keyboard-response","46","45983","0.0-2.0-0.22","1067","17","pre","6","afternoon","2026-04-08","2026-04-21","2026-04-13T21:06:31.534Z","Mozilla/5.0 (iPhone; CPU iPhone OS 18_7 like Mac OS X) AppleWebKit/605.1.15 (KHTML, like Gecko) Mobile/15E148","358","632","240","","null","<div style=""font-size:60px;"">+</div>","null","fixation","","","","","","","","","","","",""
"html-button-response","47","47366","0.0-2.0-1.22","1067","17","pre","6","afternoon","2026-04-08","2026-04-21","2026-04-13T21:06:31.534Z","Mozilla/5.0 (iPhone; CPU iPhone OS 18_7 like Mac OS X) AppleWebKit/605.1.15 (KHTML, like Gecko) Mobile/15E148","358","632","240","","1380","<div class=""prompt"" style=""font-size:24px; margin-bottom:20px;"">Which word describes you more?</div>","1","pairing","23","visionary","attractive","PosPos","47","88","positive","positive","41","attractive","right","true"
"html-keyboard-response","48","48168","0.0-2.0-0.23","1067","17","pre","6","afternoon","2026-04-08","2026-04-21","2026-04-13T21:06:31.534Z","Mozilla/5.0 (iPhone; CPU iPhone OS 18_7 like Mac OS X) AppleWebKit/605.1.15 (KHTML, like Gecko) Mobile/15E148","358","632","240","","null","<div style=""font-size:60px;"">+</div>","null","fixation","","","","","","","","","","","",""
"html-button-response","49","49116","0.0-2.0-1.23","1067","17","pre","6","afternoon","2026-04-08","2026-04-21","2026-04-13T21:06:31.534Z","Mozilla/5.0 (iPhone; CPU iPhone OS 18_7 like Mac OS X) AppleWebKit/605.1.15 (KHTML, like Gecko) Mobile/15E148","358","632","240","","945","<div class=""prompt"" style=""font-size:24px; margin-bottom:20px;"">Which word describes you more?</div>","1","pairing","24","creep","successful","PosNeg","1","77","negative","positive","76","successful","right","true"
"instructions","50","49781","0.0-3.0","1067","17","pre","6","afternoon","2026-04-08","2026-04-21","2026-04-13T21:06:31.534Z","Mozilla/5.0 (iPhone; CPU iPhone OS 18_7 like Mac OS X) AppleWebKit/605.1.15 (KHTML, like Gecko) Mobile/15E148","358","632","240","[{""page_index"":0,""viewing_time"":663}]","663","","","","","","","","","","","","","","",""
