"trial_type","trial_index","time_elapsed","internal_node_id","PUNS_ID","session_number","session_phase","session_day","session_slot","ema_start_date","ema_post_start_date","experiment_start","browser","screen_width","screen_height","timezone_offset","view_history","rt","stimulus","response","which_experiment_phase","trial_number","left_word","right_word","valence","left_base_rating","right_base_rating","left_valence","right_valence","abs_diff","participant_response","chosen_side","valid_response"
"pavlovia","0","1420","0.0-0.0","1096","49","post","7","morning","2026-05-13","2026-05-25","2026-05-31T13:15:59.032Z","Mozilla/5.0 (Linux; Android 15; motorola razr 2023 Build/V1TVS35H.41-24-3-12-3-1; wv) AppleWebKit/537.36 (KHTML, like Gecko) Version/4.0 Chrome/148.0.7778.178 Mobile Safari/537.36","379","796","240","","","","","","","","","","","","","","","","",""
"instructions","1","4553","0.0-1.0","1096","49","post","7","morning","2026-05-13","2026-05-25","2026-05-31T13:15:59.032Z","Mozilla/5.0 (Linux; Android 15; motorola razr 2023 Build/V1TVS35H.41-24-3-12-3-1; wv) AppleWebKit/537.36 (KHTML, like Gecko) Version/4.0 Chrome/148.0.7778.178 Mobile Safari/537.36","379","796","240","[{""page_index"":0,""viewing_time"":1061},{""page_index"":1,""viewing_time"":704},{""page_index"":2,""viewing_time"":696},{""page_index"":3,""viewing_time"":669}]","3130","","","","","","","","","","","","","","",""
"html-keyboard-response","2","5357","0.0-2.0-0.0","1096","49","post","7","morning","2026-05-13","2026-05-25","2026-05-31T13:15:59.032Z","Mozilla/5.0 (Linux; Android 15; motorola razr 2023 Build/V1TVS35H.41-24-3-12-3-1; wv) AppleWebKit/537.36 (KHTML, like Gecko) Version/4.0 Chrome/148.0.7778.178 Mobile Safari/537.36","379","796","240","","null","<div style=""font-size:60px;"">+</div>","null","fixation","","","","","","","","","","","",""
"html-button-response","3","7876","0.0-2.0-1.0","1096","49","post","7","morning","2026-05-13","2026-05-25","2026-05-31T13:15:59.032Z","Mozilla/5.0 (Linux; Android 15; motorola razr 2023 Build/V1TVS35H.41-24-3-12-3-1; wv) AppleWebKit/537.36 (KHTML, like Gecko) Version/4.0 Chrome/148.0.7778.178 Mobile Safari/537.36","379","796","240","","2510","<div class=""prompt"" style=""font-size:24px; margin-bottom:20px;"">Which word describes you more?</div>","0","pairing","1","sadistic","phony","NegNeg","76","2","negative","negative","74","sadistic","left","true"
"html-keyboard-response","4","8678","0.0-2.0-0.1","1096","49","post","7","morning","2026-05-13","2026-05-25","2026-05-31T13:15:59.032Z","Mozilla/5.0 (Linux; Android 15; motorola razr 2023 Build/V1TVS35H.41-24-3-12-3-1; wv) AppleWebKit/537.36 (KHTML, like Gecko) Version/4.0 Chrome/148.0.7778.178 Mobile Safari/537.36","379","796","240","","null","<div style=""font-size:60px;"">+</div>","null","fixation","","","","","","","","","","","",""
"html-button-response","5","10295","0.0-2.0-1.1","1096","49","post","7","morning","2026-05-13","2026-05-25","2026-05-31T13:15:59.032Z","Mozilla/5.0 (Linux; Android 15; motorola razr 2023 Build/V1TVS35H.41-24-3-12-3-1; wv) AppleWebKit/537.36 (KHTML, like Gecko) Version/4.0 Chrome/148.0.7778.178 Mobile Safari/537.36","379","796","240","","1612","<div class=""prompt"" style=""font-size:24px; margin-bottom:20px;"">Which word describes you more?</div>","0","pairing","2","grateful","hater","PosNeg","95","66","positive","negative","29","grateful","left","true"
"html-keyboard-response","6","11100","0.0-2.0-0.2","1096","49","post","7","morning","2026-05-13","2026-05-25","2026-05-31T13:15:59.032Z","Mozilla/5.0 (Linux; Android 15; motorola razr 2023 Build/V1TVS35H.41-24-3-12-3-1; wv) AppleWebKit/537.36 (KHTML, like Gecko) Version/4.0 Chrome/148.0.7778.178 Mobile Safari/537.36","379","796","240","","null","<div style=""font-size:60px;"">+</div>","null","fixation","","","","","","","","","","","",""
"html-button-response","7","12725","0.0-2.0-1.2","1096","49","post","7","morning","2026-05-13","2026-05-25","2026-05-31T13:15:59.032Z","Mozilla/5.0 (Linux; Android 15; motorola razr 2023 Build/V1TVS35H.41-24-3-12-3-1; wv) AppleWebKit/537.36 (KHTML, like Gecko) Version/4.0 Chrome/148.0.7778.178 Mobile Safari/537.36","379","796","240","","1621","<div class=""prompt"" style=""font-size:24px; margin-bottom:20px;"">Which word describes you more?</div>","0","pairing","3","carefree","sadistic","PosNeg","8","76","positive","negative","68","carefree","left","true"
"html-keyboard-response","8","13527","0.0-2.0-0.3","1096","49","post","7","morning","2026-05-13","2026-05-25","2026-05-31T13:15:59.032Z","Mozilla/5.0 (Linux; Android 15; motorola razr 2023 Build/V1TVS35H.41-24-3-12-3-1; wv) AppleWebKit/537.36 (KHTML, like Gecko) Version/4.0 Chrome/148.0.7778.178 Mobile Safari/537.36","379","796","240","","null","<div style=""font-size:60px;"">+</div>","null","fixation","","","","","","","","","","","",""
"html-button-response","9","14801","0.0-2.0-1.3","1096","49","post","7","morning","2026-05-13","2026-05-25","2026-05-31T13:15:59.032Z","Mozilla/5.0 (Linux; Android 15; motorola razr 2023 Build/V1TVS35H.41-24-3-12-3-1; wv) AppleWebKit/537.36 (KHTML, like Gecko) Version/4.0 Chrome/148.0.7778.178 Mobile Safari/537.36","379","796","240","","1268","<div class=""prompt"" style=""font-size:24px; margin-bottom:20px;"">Which word describes you more?</div>","0","pairing","4","successful","parasite","PosNeg","66","3","positive","negative","63","successful","left","true"
"html-keyboard-response","10","15603","0.0-2.0-0.4","1096","49","post","7","morning","2026-05-13","2026-05-25","2026-05-31T13:15:59.032Z","Mozilla/5.0 (Linux; Android 15; motorola razr 2023 Build/V1TVS35H.41-24-3-12-3-1; wv) AppleWebKit/537.36 (KHTML, like Gecko) Version/4.0 Chrome/148.0.7778.178 Mobile Safari/537.36","379","796","240","","null","<div style=""font-size:60px;"">+</div>","null","fixation","","","","","","","","","","","",""
"html-button-response","11","17286","0.0-2.0-1.4","1096","49","post","7","morning","2026-05-13","2026-05-25","2026-05-31T13:15:59.032Z","Mozilla/5.0 (Linux; Android 15; motorola razr 2023 Build/V1TVS35H.41-24-3-12-3-1; wv) AppleWebKit/537.36 (KHTML, like Gecko) Version/4.0 Chrome/148.0.7778.178 Mobile Safari/537.36","379","796","240","","1678","<div class=""prompt"" style=""font-size:24px; margin-bottom:20px;"">Which word describes you more?</div>","0","pairing","5","arrogant","sophisticated","PosNeg","67","29","negative","positive","38","arrogant","left","true"
"html-keyboard-response","12","18089","0.0-2.0-0.5","1096","49","post","7","morning","2026-05-13","2026-05-25","2026-05-31T13:15:59.032Z","Mozilla/5.0 (Linux; Android 15; motorola razr 2023 Build/V1TVS35H.41-24-3-12-3-1; wv) AppleWebKit/537.36 (KHTML, like Gecko) Version/4.0 Chrome/148.0.7778.178 Mobile Safari/537.36","379","796","240","","null","<div style=""font-size:60px;"">+</div>","null","fixation","","","","","","","","","","","",""
"html-button-response","13","20129","0.0-2.0-1.5","1096","49","post","7","morning","2026-05-13","2026-05-25","2026-05-31T13:15:59.032Z","Mozilla/5.0 (Linux; Android 15; motorola razr 2023 Build/V1TVS35H.41-24-3-12-3-1; wv) AppleWebKit/537.36 (KHTML, like Gecko) Version/4.0 Chrome/148.0.7778.178 Mobile Safari/537.36","379","796","240","","2037","<div class=""prompt"" style=""font-size:24px; margin-bottom:20px;"">Which word describes you more?</div>","1","pairing","6","unforgivable","decisive","PosNeg","0","28","negative","positive","28","decisive","right","true"
"html-keyboard-response","14","20930","0.0-2.0-0.6","1096","49","post","7","morning","2026-05-13","2026-05-25","2026-05-31T13:15:59.032Z","Mozilla/5.0 (Linux; Android 15; motorola razr 2023 Build/V1TVS35H.41-24-3-12-3-1; wv) AppleWebKit/537.36 (KHTML, like Gecko) Version/4.0 Chrome/148.0.7778.178 Mobile Safari/537.36","379","796","240","","null","<div style=""font-size:60px;"">+</div>","null","fixation","","","","","","","","","","","",""
"html-button-response","15","23268","0.0-2.0-1.6","1096","49","post","7","morning","2026-05-13","2026-05-25","2026-05-31T13:15:59.032Z","Mozilla/5.0 (Linux; Android 15; motorola razr 2023 Build/V1TVS35H.41-24-3-12-3-1; wv) AppleWebKit/537.36 (KHTML, like Gecko) Version/4.0 Chrome/148.0.7778.178 Mobile Safari/537.36","379","796","240","","2337","<div class=""prompt"" style=""font-size:24px; margin-bottom:20px;"">Which word describes you more?</div>","1","pairing","7","virtuous","lovable","PosPos","52","100","positive","positive","48","lovable","right","true"
"html-keyboard-response","16","24070","0.0-2.0-0.7","1096","49","post","7","morning","2026-05-13","2026-05-25","2026-05-31T13:15:59.032Z","Mozilla/5.0 (Linux; Android 15; motorola razr 2023 Build/V1TVS35H.41-24-3-12-3-1; wv) AppleWebKit/537.36 (KHTML, like Gecko) Version/4.0 Chrome/148.0.7778.178 Mobile Safari/537.36","379","796","240","","null","<div style=""font-size:60px;"">+</div>","null","fixation","","","","","","","","","","","",""
"html-button-response","17","25049","0.0-2.0-1.7","1096","49","post","7","morning","2026-05-13","2026-05-25","2026-05-31T13:15:59.032Z","Mozilla/5.0 (Linux; Android 15; motorola razr 2023 Build/V1TVS35H.41-24-3-12-3-1; wv) AppleWebKit/537.36 (KHTML, like Gecko) Version/4.0 Chrome/148.0.7778.178 Mobile Safari/537.36","379","796","240","","977","<div class=""prompt"" style=""font-size:24px; margin-bottom:20px;"">Which word describes you more?</div>","0","pairing","8","decisive","arrogant","PosNeg","28","67","positive","negative","39","decisive","left","true"
"html-keyboard-response","18","25854","0.0-2.0-0.8","1096","49","post","7","morning","2026-05-13","2026-05-25","2026-05-31T13:15:59.032Z","Mozilla/5.0 (Linux; Android 15; motorola razr 2023 Build/V1TVS35H.41-24-3-12-3-1; wv) AppleWebKit/537.36 (KHTML, like Gecko) Version/4.0 Chrome/148.0.7778.178 Mobile Safari/537.36","379","796","240","","null","<div style=""font-size:60px;"">+</div>","null","fixation","","","","","","","","","","","",""
"html-button-response","19","27569","0.0-2.0-1.8","1096","49","post","7","morning","2026-05-13","2026-05-25","2026-05-31T13:15:59.032Z","Mozilla/5.0 (Linux; Android 15; motorola razr 2023 Build/V1TVS35H.41-24-3-12-3-1; wv) AppleWebKit/537.36 (KHTML, like Gecko) Version/4.0 Chrome/148.0.7778.178 Mobile Safari/537.36","379","796","240","","1713","<div class=""prompt"" style=""font-size:24px; margin-bottom:20px;"">Which word describes you more?</div>","0","pairing","9","entertaining","skilled","PosPos","89","76","positive","positive","13","entertaining","left","true"
"html-keyboard-response","20","28371","0.0-2.0-0.9","1096","49","post","7","morning","2026-05-13","2026-05-25","2026-05-31T13:15:59.032Z","Mozilla/5.0 (Linux; Android 15; motorola razr 2023 Build/V1TVS35H.41-24-3-12-3-1; wv) AppleWebKit/537.36 (KHTML, like Gecko) Version/4.0 Chrome/148.0.7778.178 Mobile Safari/537.36","379","796","240","","null","<div style=""font-size:60px;"">+</div>","null","fixation","","","","","","","","","","","",""
"html-button-response","21","29475","0.0-2.0-1.9","1096","49","post","7","morning","2026-05-13","2026-05-25","2026-05-31T13:15:59.032Z","Mozilla/5.0 (Linux; Android 15; motorola razr 2023 Build/V1TVS35H.41-24-3-12-3-1; wv) AppleWebKit/537.36 (KHTML, like Gecko) Version/4.0 Chrome/148.0.7778.178 Mobile Safari/537.36","379","796","240","","1101","<div class=""prompt"" style=""font-size:24px; margin-bottom:20px;"">Which word describes you more?</div>","0","pairing","10","eloquent","selfish","PosNeg","85","51","positive","negative","34","eloquent","left","true"
"html-keyboard-response","22","30277","0.0-2.0-0.10","1096","49","post","7","morning","2026-05-13","2026-05-25","2026-05-31T13:15:59.032Z","Mozilla/5.0 (Linux; Android 15; motorola razr 2023 Build/V1TVS35H.41-24-3-12-3-1; wv) AppleWebKit/537.36 (KHTML, like Gecko) Version/4.0 Chrome/148.0.7778.178 Mobile Safari/537.36","379","796","240","","null","<div style=""font-size:60px;"">+</div>","null","fixation","","","","","","","","","","","",""
"html-button-response","23","31533","0.0-2.0-1.10","1096","49","post","7","morning","2026-05-13","2026-05-25","2026-05-31T13:15:59.032Z","Mozilla/5.0 (Linux; Android 15; motorola razr 2023 Build/V1TVS35H.41-24-3-12-3-1; wv) AppleWebKit/537.36 (KHTML, like Gecko) Version/4.0 Chrome/148.0.7778.178 Mobile Safari/537.36","379","796","240","","1253","<div class=""prompt"" style=""font-size:24px; margin-bottom:20px;"">Which word describes you more?</div>","1","pairing","11","parasite","champion","PosNeg","3","39","negative","positive","36","champion","right","true"
"html-keyboard-response","24","32335","0.0-2.0-0.11","1096","49","post","7","morning","2026-05-13","2026-05-25","2026-05-31T13:15:59.032Z","Mozilla/5.0 (Linux; Android 15; motorola razr 2023 Build/V1TVS35H.41-24-3-12-3-1; wv) AppleWebKit/537.36 (KHTML, like Gecko) Version/4.0 Chrome/148.0.7778.178 Mobile Safari/537.36","379","796","240","","null","<div style=""font-size:60px;"">+</div>","null","fixation","","","","","","","","","","","",""
"html-button-response","25","36194","0.0-2.0-1.11","1096","49","post","7","morning","2026-05-13","2026-05-25","2026-05-31T13:15:59.032Z","Mozilla/5.0 (Linux; Android 15; motorola razr 2023 Build/V1TVS35H.41-24-3-12-3-1; wv) AppleWebKit/537.36 (KHTML, like Gecko) Version/4.0 Chrome/148.0.7778.178 Mobile Safari/537.36","379","796","240","","3856","<div class=""prompt"" style=""font-size:24px; margin-bottom:20px;"">Which word describes you more?</div>","0","pairing","12","irresponsible","vermin","NegNeg","49","3","negative","negative","46","irresponsible","left","true"
"html-keyboard-response","26","36996","0.0-2.0-0.12","1096","49","post","7","morning","2026-05-13","2026-05-25","2026-05-31T13:15:59.032Z","Mozilla/5.0 (Linux; Android 15; motorola razr 2023 Build/V1TVS35H.41-24-3-12-3-1; wv) AppleWebKit/537.36 (KHTML, like Gecko) Version/4.0 Chrome/148.0.7778.178 Mobile Safari/537.36","379","796","240","","null","<div style=""font-size:60px;"">+</div>","null","fixation","","","","","","","","","","","",""
"html-button-response","27","39352","0.0-2.0-1.12","1096","49","post","7","morning","2026-05-13","2026-05-25","2026-05-31T13:15:59.032Z","Mozilla/5.0 (Linux; Android 15; motorola razr 2023 Build/V1TVS35H.41-24-3-12-3-1; wv) AppleWebKit/537.36 (KHTML, like Gecko) Version/4.0 Chrome/148.0.7778.178 Mobile Safari/537.36","379","796","240","","2353","<div class=""prompt"" style=""font-size:24px; margin-bottom:20px;"">Which word describes you more?</div>","0","pairing","13","decisive","prick","PosNeg","28","50","positive","negative","22","decisive","left","true"
"html-keyboard-response","28","40154","0.0-2.0-0.13","1096","49","post","7","morning","2026-05-13","2026-05-25","2026-05-31T13:15:59.032Z","Mozilla/5.0 (Linux; Android 15; motorola razr 2023 Build/V1TVS35H.41-24-3-12-3-1; wv) AppleWebKit/537.36 (KHTML, like Gecko) Version/4.0 Chrome/148.0.7778.178 Mobile Safari/537.36","379","796","240","","null","<div style=""font-size:60px;"">+</div>","null","fixation","","","","","","","","","","","",""
"html-button-response","29","44272","0.0-2.0-1.13","1096","49","post","7","morning","2026-05-13","2026-05-25","2026-05-31T13:15:59.032Z","Mozilla/5.0 (Linux; Android 15; motorola razr 2023 Build/V1TVS35H.41-24-3-12-3-1; wv) AppleWebKit/537.36 (KHTML, like Gecko) Version/4.0 Chrome/148.0.7778.178 Mobile Safari/537.36","379","796","240","","4116","<div class=""prompt"" style=""font-size:24px; margin-bottom:20px;"">Which word describes you more?</div>","1","pairing","14","bitter","inadequate","NegNeg","13","36","negative","negative","23","inadequate","right","true"
"html-keyboard-response","30","45075","0.0-2.0-0.14","1096","49","post","7","morning","2026-05-13","2026-05-25","2026-05-31T13:15:59.032Z","Mozilla/5.0 (Linux; Android 15; motorola razr 2023 Build/V1TVS35H.41-24-3-12-3-1; wv) AppleWebKit/537.36 (KHTML, like Gecko) Version/4.0 Chrome/148.0.7778.178 Mobile Safari/537.36","379","796","240","","null","<div style=""font-size:60px;"">+</div>","null","fixation","","","","","","","","","","","",""
"html-button-response","31","46459","0.0-2.0-1.14","1096","49","post","7","morning","2026-05-13","2026-05-25","2026-05-31T13:15:59.032Z","Mozilla/5.0 (Linux; Android 15; motorola razr 2023 Build/V1TVS35H.41-24-3-12-3-1; wv) AppleWebKit/537.36 (KHTML, like Gecko) Version/4.0 Chrome/148.0.7778.178 Mobile Safari/537.36","379","796","240","","1381","<div class=""prompt"" style=""font-size:24px; margin-bottom:20px;"">Which word describes you more?</div>","1","pairing","15","phony","fool","NegNeg","2","37","negative","negative","35","fool","right","true"
"html-keyboard-response","32","47261","0.0-2.0-0.15","1096","49","post","7","morning","2026-05-13","2026-05-25","2026-05-31T13:15:59.032Z","Mozilla/5.0 (Linux; Android 15; motorola razr 2023 Build/V1TVS35H.41-24-3-12-3-1; wv) AppleWebKit/537.36 (KHTML, like Gecko) Version/4.0 Chrome/148.0.7778.178 Mobile Safari/537.36","379","796","240","","null","<div style=""font-size:60px;"">+</div>","null","fixation","","","","","","","","","","","",""
"html-button-response","33","49455","0.0-2.0-1.15","1096","49","post","7","morning","2026-05-13","2026-05-25","2026-05-31T13:15:59.032Z","Mozilla/5.0 (Linux; Android 15; motorola razr 2023 Build/V1TVS35H.41-24-3-12-3-1; wv) AppleWebKit/537.36 (KHTML, like Gecko) Version/4.0 Chrome/148.0.7778.178 Mobile Safari/537.36","379","796","240","","2191","<div class=""prompt"" style=""font-size:24px; margin-bottom:20px;"">Which word describes you more?</div>","1","pairing","16","violent","unique","PosNeg","4","98","negative","positive","94","unique","right","true"
"html-keyboard-response","34","50256","0.0-2.0-0.16","1096","49","post","7","morning","2026-05-13","2026-05-25","2026-05-31T13:15:59.032Z","Mozilla/5.0 (Linux; Android 15; motorola razr 2023 Build/V1TVS35H.41-24-3-12-3-1; wv) AppleWebKit/537.36 (KHTML, like Gecko) Version/4.0 Chrome/148.0.7778.178 Mobile Safari/537.36","379","796","240","","null","<div style=""font-size:60px;"">+</div>","null","fixation","","","","","","","","","","","",""
"html-button-response","35","52048","0.0-2.0-1.16","1096","49","post","7","morning","2026-05-13","2026-05-25","2026-05-31T13:15:59.032Z","Mozilla/5.0 (Linux; Android 15; motorola razr 2023 Build/V1TVS35H.41-24-3-12-3-1; wv) AppleWebKit/537.36 (KHTML, like Gecko) Version/4.0 Chrome/148.0.7778.178 Mobile Safari/537.36","379","796","240","","1789","<div class=""prompt"" style=""font-size:24px; margin-bottom:20px;"">Which word describes you more?</div>","1","pairing","17","virtuous","valued","PosPos","52","78","positive","positive","26","valued","right","true"
"html-keyboard-response","36","52851","0.0-2.0-0.17","1096","49","post","7","morning","2026-05-13","2026-05-25","2026-05-31T13:15:59.032Z","Mozilla/5.0 (Linux; Android 15; motorola razr 2023 Build/V1TVS35H.41-24-3-12-3-1; wv) AppleWebKit/537.36 (KHTML, like Gecko) Version/4.0 Chrome/148.0.7778.178 Mobile Safari/537.36","379","796","240","","null","<div style=""font-size:60px;"">+</div>","null","fixation","","","","","","","","","","","",""
"html-button-response","37","55386","0.0-2.0-1.17","1096","49","post","7","morning","2026-05-13","2026-05-25","2026-05-31T13:15:59.032Z","Mozilla/5.0 (Linux; Android 15; motorola razr 2023 Build/V1TVS35H.41-24-3-12-3-1; wv) AppleWebKit/537.36 (KHTML, like Gecko) Version/4.0 Chrome/148.0.7778.178 Mobile Safari/537.36","379","796","240","","2532","<div class=""prompt"" style=""font-size:24px; margin-bottom:20px;"">Which word describes you more?</div>","0","pairing","18","awkward","miserable","NegNeg","10","0","negative","negative","10","awkward","left","true"
"html-keyboard-response","38","56187","0.0-2.0-0.18","1096","49","post","7","morning","2026-05-13","2026-05-25","2026-05-31T13:15:59.032Z","Mozilla/5.0 (Linux; Android 15; motorola razr 2023 Build/V1TVS35H.41-24-3-12-3-1; wv) AppleWebKit/537.36 (KHTML, like Gecko) Version/4.0 Chrome/148.0.7778.178 Mobile Safari/537.36","379","796","240","","null","<div style=""font-size:60px;"">+</div>","null","fixation","","","","","","","","","","","",""
"html-button-response","39","57563","0.0-2.0-1.18","1096","49","post","7","morning","2026-05-13","2026-05-25","2026-05-31T13:15:59.032Z","Mozilla/5.0 (Linux; Android 15; motorola razr 2023 Build/V1TVS35H.41-24-3-12-3-1; wv) AppleWebKit/537.36 (KHTML, like Gecko) Version/4.0 Chrome/148.0.7778.178 Mobile Safari/537.36","379","796","240","","1373","<div class=""prompt"" style=""font-size:24px; margin-bottom:20px;"">Which word describes you more?</div>","0","pairing","19","pest","sadistic","NegNeg","0","76","negative","negative","76","pest","left","true"
"html-keyboard-response","40","58365","0.0-2.0-0.19","1096","49","post","7","morning","2026-05-13","2026-05-25","2026-05-31T13:15:59.032Z","Mozilla/5.0 (Linux; Android 15; motorola razr 2023 Build/V1TVS35H.41-24-3-12-3-1; wv) AppleWebKit/537.36 (KHTML, like Gecko) Version/4.0 Chrome/148.0.7778.178 Mobile Safari/537.36","379","796","240","","null","<div style=""font-size:60px;"">+</div>","null","fixation","","","","","","","","","","","",""
"html-button-response","41","59550","0.0-2.0-1.19","1096","49","post","7","morning","2026-05-13","2026-05-25","2026-05-31T13:15:59.032Z","Mozilla/5.0 (Linux; Android 15; motorola razr 2023 Build/V1TVS35H.41-24-3-12-3-1; wv) AppleWebKit/537.36 (KHTML, like Gecko) Version/4.0 Chrome/148.0.7778.178 Mobile Safari/537.36","379","796","240","","1182","<div class=""prompt"" style=""font-size:24px; margin-bottom:20px;"">Which word describes you more?</div>","1","pairing","20","carefree","capable","PosPos","8","88","positive","positive","80","capable","right","true"
"html-keyboard-response","42","60351","0.0-2.0-0.20","1096","49","post","7","morning","2026-05-13","2026-05-25","2026-05-31T13:15:59.032Z","Mozilla/5.0 (Linux; Android 15; motorola razr 2023 Build/V1TVS35H.41-24-3-12-3-1; wv) AppleWebKit/537.36 (KHTML, like Gecko) Version/4.0 Chrome/148.0.7778.178 Mobile Safari/537.36","379","796","240","","null","<div style=""font-size:60px;"">+</div>","null","fixation","","","","","","","","","","","",""
"html-button-response","43","61199","0.0-2.0-1.20","1096","49","post","7","morning","2026-05-13","2026-05-25","2026-05-31T13:15:59.032Z","Mozilla/5.0 (Linux; Android 15; motorola razr 2023 Build/V1TVS35H.41-24-3-12-3-1; wv) AppleWebKit/537.36 (KHTML, like Gecko) Version/4.0 Chrome/148.0.7778.178 Mobile Safari/537.36","379","796","240","","844","<div class=""prompt"" style=""font-size:24px; margin-bottom:20px;"">Which word describes you more?</div>","0","pairing","21","enthusiastic","healthy","PosPos","93","57","positive","positive","36","enthusiastic","left","true"
"html-keyboard-response","44","62002","0.0-2.0-0.21","1096","49","post","7","morning","2026-05-13","2026-05-25","2026-05-31T13:15:59.032Z","Mozilla/5.0 (Linux; Android 15; motorola razr 2023 Build/V1TVS35H.41-24-3-12-3-1; wv) AppleWebKit/537.36 (KHTML, like Gecko) Version/4.0 Chrome/148.0.7778.178 Mobile Safari/537.36","379","796","240","","null","<div style=""font-size:60px;"">+</div>","null","fixation","","","","","","","","","","","",""
"html-button-response","45","63448","0.0-2.0-1.21","1096","49","post","7","morning","2026-05-13","2026-05-25","2026-05-31T13:15:59.032Z","Mozilla/5.0 (Linux; Android 15; motorola razr 2023 Build/V1TVS35H.41-24-3-12-3-1; wv) AppleWebKit/537.36 (KHTML, like Gecko) Version/4.0 Chrome/148.0.7778.178 Mobile Safari/537.36","379","796","240","","1443","<div class=""prompt"" style=""font-size:24px; margin-bottom:20px;"">Which word describes you more?</div>","0","pairing","22","goodwilled","defective","PosNeg","87","1","positive","negative","86","goodwilled","left","true"
"html-keyboard-response","46","64250","0.0-2.0-0.22","1096","49","post","7","morning","2026-05-13","2026-05-25","2026-05-31T13:15:59.032Z","Mozilla/5.0 (Linux; Android 15; motorola razr 2023 Build/V1TVS35H.41-24-3-12-3-1; wv) AppleWebKit/537.36 (KHTML, like Gecko) Version/4.0 Chrome/148.0.7778.178 Mobile Safari/537.36","379","796","240","","null","<div style=""font-size:60px;"">+</div>","null","fixation","","","","","","","","","","","",""
"html-button-response","47","65319","0.0-2.0-1.22","1096","49","post","7","morning","2026-05-13","2026-05-25","2026-05-31T13:15:59.032Z","Mozilla/5.0 (Linux; Android 15; motorola razr 2023 Build/V1TVS35H.41-24-3-12-3-1; wv) AppleWebKit/537.36 (KHTML, like Gecko) Version/4.0 Chrome/148.0.7778.178 Mobile Safari/537.36","379","796","240","","1066","<div class=""prompt"" style=""font-size:24px; margin-bottom:20px;"">Which word describes you more?</div>","1","pairing","23","irresponsible","champion","PosNeg","49","39","negative","positive","10","champion","right","true"
"html-keyboard-response","48","66121","0.0-2.0-0.23","1096","49","post","7","morning","2026-05-13","2026-05-25","2026-05-31T13:15:59.032Z","Mozilla/5.0 (Linux; Android 15; motorola razr 2023 Build/V1TVS35H.41-24-3-12-3-1; wv) AppleWebKit/537.36 (KHTML, like Gecko) Version/4.0 Chrome/148.0.7778.178 Mobile Safari/537.36","379","796","240","","null","<div style=""font-size:60px;"">+</div>","null","fixation","","","","","","","","","","","",""
"html-button-response","49","66889","0.0-2.0-1.23","1096","49","post","7","morning","2026-05-13","2026-05-25","2026-05-31T13:15:59.032Z","Mozilla/5.0 (Linux; Android 15; motorola razr 2023 Build/V1TVS35H.41-24-3-12-3-1; wv) AppleWebKit/537.36 (KHTML, like Gecko) Version/4.0 Chrome/148.0.7778.178 Mobile Safari/537.36","379","796","240","","765","<div class=""prompt"" style=""font-size:24px; margin-bottom:20px;"">Which word describes you more?</div>","0","pairing","24","wise","carefree","PosPos","83","8","positive","positive","75","wise","left","true"
"instructions","50","67856","0.0-3.0","1096","49","post","7","morning","2026-05-13","2026-05-25","2026-05-31T13:15:59.032Z","Mozilla/5.0 (Linux; Android 15; motorola razr 2023 Build/V1TVS35H.41-24-3-12-3-1; wv) AppleWebKit/537.36 (KHTML, like Gecko) Version/4.0 Chrome/148.0.7778.178 Mobile Safari/537.36","379","796","240","[{""page_index"":0,""viewing_time"":965}]","966","","","","","","","","","","","","","","",""
