"trial_type","trial_index","time_elapsed","internal_node_id","PUNS_ID","session_number","session_phase","session_day","session_slot","ema_start_date","ema_post_start_date","experiment_start","browser","screen_width","screen_height","timezone_offset","view_history","rt","stimulus","response","which_experiment_phase","trial_number","left_word","right_word","valence","left_base_rating","right_base_rating","left_valence","right_valence","abs_diff","participant_response","chosen_side","valid_response"
"pavlovia","0","1451","0.0-0.0","1070","49","post","7","morning","2026-05-20","2026-06-01","2026-06-07T17:23:30.554Z","Mozilla/5.0 (Linux; Android 16; SM-S916U Build/BP4A.251205.006; wv) AppleWebKit/537.36 (KHTML, like Gecko) Version/4.0 Chrome/148.0.7778.215 Mobile Safari/537.36","328","577","420","","","","","","","","","","","","","","","","",""
"instructions","1","5649","0.0-1.0","1070","49","post","7","morning","2026-05-20","2026-06-01","2026-06-07T17:23:30.554Z","Mozilla/5.0 (Linux; Android 16; SM-S916U Build/BP4A.251205.006; wv) AppleWebKit/537.36 (KHTML, like Gecko) Version/4.0 Chrome/148.0.7778.215 Mobile Safari/537.36","328","577","420","[{""page_index"":0,""viewing_time"":1664},{""page_index"":1,""viewing_time"":1093},{""page_index"":2,""viewing_time"":931},{""page_index"":3,""viewing_time"":508}]","4196","","","","","","","","","","","","","","",""
"html-keyboard-response","2","6451","0.0-2.0-0.0","1070","49","post","7","morning","2026-05-20","2026-06-01","2026-06-07T17:23:30.554Z","Mozilla/5.0 (Linux; Android 16; SM-S916U Build/BP4A.251205.006; wv) AppleWebKit/537.36 (KHTML, like Gecko) Version/4.0 Chrome/148.0.7778.215 Mobile Safari/537.36","328","577","420","","null","<div style=""font-size:60px;"">+</div>","null","fixation","","","","","","","","","","","",""
"html-button-response","3","7899","0.0-2.0-1.0","1070","49","post","7","morning","2026-05-20","2026-06-01","2026-06-07T17:23:30.554Z","Mozilla/5.0 (Linux; Android 16; SM-S916U Build/BP4A.251205.006; wv) AppleWebKit/537.36 (KHTML, like Gecko) Version/4.0 Chrome/148.0.7778.215 Mobile Safari/537.36","328","577","420","","1444","<div class=""prompt"" style=""font-size:24px; margin-bottom:20px;"">Which word describes you more?</div>","1","pairing","1","flawless","appealing","PosPos","0","84","positive","positive","84","appealing","right","true"
"html-keyboard-response","4","8701","0.0-2.0-0.1","1070","49","post","7","morning","2026-05-20","2026-06-01","2026-06-07T17:23:30.554Z","Mozilla/5.0 (Linux; Android 16; SM-S916U Build/BP4A.251205.006; wv) AppleWebKit/537.36 (KHTML, like Gecko) Version/4.0 Chrome/148.0.7778.215 Mobile Safari/537.36","328","577","420","","null","<div style=""font-size:60px;"">+</div>","null","fixation","","","","","","","","","","","",""
"html-button-response","5","10217","0.0-2.0-1.1","1070","49","post","7","morning","2026-05-20","2026-06-01","2026-06-07T17:23:30.554Z","Mozilla/5.0 (Linux; Android 16; SM-S916U Build/BP4A.251205.006; wv) AppleWebKit/537.36 (KHTML, like Gecko) Version/4.0 Chrome/148.0.7778.215 Mobile Safari/537.36","328","577","420","","1515","<div class=""prompt"" style=""font-size:24px; margin-bottom:20px;"">Which word describes you more?</div>","0","pairing","2","brave","unique","PosPos","93","49","positive","positive","44","brave","left","true"
"html-keyboard-response","6","11019","0.0-2.0-0.2","1070","49","post","7","morning","2026-05-20","2026-06-01","2026-06-07T17:23:30.554Z","Mozilla/5.0 (Linux; Android 16; SM-S916U Build/BP4A.251205.006; wv) AppleWebKit/537.36 (KHTML, like Gecko) Version/4.0 Chrome/148.0.7778.215 Mobile Safari/537.36","328","577","420","","null","<div style=""font-size:60px;"">+</div>","null","fixation","","","","","","","","","","","",""
"html-button-response","7","12187","0.0-2.0-1.2","1070","49","post","7","morning","2026-05-20","2026-06-01","2026-06-07T17:23:30.554Z","Mozilla/5.0 (Linux; Android 16; SM-S916U Build/BP4A.251205.006; wv) AppleWebKit/537.36 (KHTML, like Gecko) Version/4.0 Chrome/148.0.7778.215 Mobile Safari/537.36","328","577","420","","1165","<div class=""prompt"" style=""font-size:24px; margin-bottom:20px;"">Which word describes you more?</div>","0","pairing","3","seeker","sadistic","PosNeg","100","0","positive","negative","100","seeker","left","true"
"html-keyboard-response","8","12990","0.0-2.0-0.3","1070","49","post","7","morning","2026-05-20","2026-06-01","2026-06-07T17:23:30.554Z","Mozilla/5.0 (Linux; Android 16; SM-S916U Build/BP4A.251205.006; wv) AppleWebKit/537.36 (KHTML, like Gecko) Version/4.0 Chrome/148.0.7778.215 Mobile Safari/537.36","328","577","420","","null","<div style=""font-size:60px;"">+</div>","null","fixation","","","","","","","","","","","",""
"html-button-response","9","17470","0.0-2.0-1.3","1070","49","post","7","morning","2026-05-20","2026-06-01","2026-06-07T17:23:30.554Z","Mozilla/5.0 (Linux; Android 16; SM-S916U Build/BP4A.251205.006; wv) AppleWebKit/537.36 (KHTML, like Gecko) Version/4.0 Chrome/148.0.7778.215 Mobile Safari/537.36","328","577","420","","4477","<div class=""prompt"" style=""font-size:24px; margin-bottom:20px;"">Which word describes you more?</div>","0","pairing","4","flawless","cruel","PosNeg","0","4","positive","negative","4","flawless","left","true"
"html-keyboard-response","10","18272","0.0-2.0-0.4","1070","49","post","7","morning","2026-05-20","2026-06-01","2026-06-07T17:23:30.554Z","Mozilla/5.0 (Linux; Android 16; SM-S916U Build/BP4A.251205.006; wv) AppleWebKit/537.36 (KHTML, like Gecko) Version/4.0 Chrome/148.0.7778.215 Mobile Safari/537.36","328","577","420","","null","<div style=""font-size:60px;"">+</div>","null","fixation","","","","","","","","","","","",""
"html-button-response","11","19711","0.0-2.0-1.4","1070","49","post","7","morning","2026-05-20","2026-06-01","2026-06-07T17:23:30.554Z","Mozilla/5.0 (Linux; Android 16; SM-S916U Build/BP4A.251205.006; wv) AppleWebKit/537.36 (KHTML, like Gecko) Version/4.0 Chrome/148.0.7778.215 Mobile Safari/537.36","328","577","420","","1437","<div class=""prompt"" style=""font-size:24px; margin-bottom:20px;"">Which word describes you more?</div>","1","pairing","5","garbage","authentic","PosNeg","0","87","negative","positive","87","authentic","right","true"
"html-keyboard-response","12","20513","0.0-2.0-0.5","1070","49","post","7","morning","2026-05-20","2026-06-01","2026-06-07T17:23:30.554Z","Mozilla/5.0 (Linux; Android 16; SM-S916U Build/BP4A.251205.006; wv) AppleWebKit/537.36 (KHTML, like Gecko) Version/4.0 Chrome/148.0.7778.215 Mobile Safari/537.36","328","577","420","","null","<div style=""font-size:60px;"">+</div>","null","fixation","","","","","","","","","","","",""
"html-button-response","13","22324","0.0-2.0-1.5","1070","49","post","7","morning","2026-05-20","2026-06-01","2026-06-07T17:23:30.554Z","Mozilla/5.0 (Linux; Android 16; SM-S916U Build/BP4A.251205.006; wv) AppleWebKit/537.36 (KHTML, like Gecko) Version/4.0 Chrome/148.0.7778.215 Mobile Safari/537.36","328","577","420","","1808","<div class=""prompt"" style=""font-size:24px; margin-bottom:20px;"">Which word describes you more?</div>","1","pairing","6","selfish","skilled","PosNeg","34","93","negative","positive","59","skilled","right","true"
"html-keyboard-response","14","23125","0.0-2.0-0.6","1070","49","post","7","morning","2026-05-20","2026-06-01","2026-06-07T17:23:30.554Z","Mozilla/5.0 (Linux; Android 16; SM-S916U Build/BP4A.251205.006; wv) AppleWebKit/537.36 (KHTML, like Gecko) Version/4.0 Chrome/148.0.7778.215 Mobile Safari/537.36","328","577","420","","null","<div style=""font-size:60px;"">+</div>","null","fixation","","","","","","","","","","","",""
"html-button-response","15","24679","0.0-2.0-1.6","1070","49","post","7","morning","2026-05-20","2026-06-01","2026-06-07T17:23:30.554Z","Mozilla/5.0 (Linux; Android 16; SM-S916U Build/BP4A.251205.006; wv) AppleWebKit/537.36 (KHTML, like Gecko) Version/4.0 Chrome/148.0.7778.215 Mobile Safari/537.36","328","577","420","","1552","<div class=""prompt"" style=""font-size:24px; margin-bottom:20px;"">Which word describes you more?</div>","0","pairing","7","heartbroken","alone","NegNeg","83","0","negative","negative","83","heartbroken","left","true"
"html-keyboard-response","16","25480","0.0-2.0-0.7","1070","49","post","7","morning","2026-05-20","2026-06-01","2026-06-07T17:23:30.554Z","Mozilla/5.0 (Linux; Android 16; SM-S916U Build/BP4A.251205.006; wv) AppleWebKit/537.36 (KHTML, like Gecko) Version/4.0 Chrome/148.0.7778.215 Mobile Safari/537.36","328","577","420","","null","<div style=""font-size:60px;"">+</div>","null","fixation","","","","","","","","","","","",""
"html-button-response","17","27179","0.0-2.0-1.7","1070","49","post","7","morning","2026-05-20","2026-06-01","2026-06-07T17:23:30.554Z","Mozilla/5.0 (Linux; Android 16; SM-S916U Build/BP4A.251205.006; wv) AppleWebKit/537.36 (KHTML, like Gecko) Version/4.0 Chrome/148.0.7778.215 Mobile Safari/537.36","328","577","420","","1696","<div class=""prompt"" style=""font-size:24px; margin-bottom:20px;"">Which word describes you more?</div>","1","pairing","8","idealistic","lovable","PosPos","56","100","positive","positive","44","lovable","right","true"
"html-keyboard-response","18","27980","0.0-2.0-0.8","1070","49","post","7","morning","2026-05-20","2026-06-01","2026-06-07T17:23:30.554Z","Mozilla/5.0 (Linux; Android 16; SM-S916U Build/BP4A.251205.006; wv) AppleWebKit/537.36 (KHTML, like Gecko) Version/4.0 Chrome/148.0.7778.215 Mobile Safari/537.36","328","577","420","","null","<div style=""font-size:60px;"">+</div>","null","fixation","","","","","","","","","","","",""
"html-button-response","19","29585","0.0-2.0-1.8","1070","49","post","7","morning","2026-05-20","2026-06-01","2026-06-07T17:23:30.554Z","Mozilla/5.0 (Linux; Android 16; SM-S916U Build/BP4A.251205.006; wv) AppleWebKit/537.36 (KHTML, like Gecko) Version/4.0 Chrome/148.0.7778.215 Mobile Safari/537.36","328","577","420","","1603","<div class=""prompt"" style=""font-size:24px; margin-bottom:20px;"">Which word describes you more?</div>","0","pairing","9","proficient","vengeful","PosNeg","84","5","positive","negative","79","proficient","left","true"
"html-keyboard-response","20","30387","0.0-2.0-0.9","1070","49","post","7","morning","2026-05-20","2026-06-01","2026-06-07T17:23:30.554Z","Mozilla/5.0 (Linux; Android 16; SM-S916U Build/BP4A.251205.006; wv) AppleWebKit/537.36 (KHTML, like Gecko) Version/4.0 Chrome/148.0.7778.215 Mobile Safari/537.36","328","577","420","","null","<div style=""font-size:60px;"">+</div>","null","fixation","","","","","","","","","","","",""
"html-button-response","21","33027","0.0-2.0-1.9","1070","49","post","7","morning","2026-05-20","2026-06-01","2026-06-07T17:23:30.554Z","Mozilla/5.0 (Linux; Android 16; SM-S916U Build/BP4A.251205.006; wv) AppleWebKit/537.36 (KHTML, like Gecko) Version/4.0 Chrome/148.0.7778.215 Mobile Safari/537.36","328","577","420","","2638","<div class=""prompt"" style=""font-size:24px; margin-bottom:20px;"">Which word describes you more?</div>","0","pairing","10","regretful","spectacular","PosNeg","59","50","negative","positive","9","regretful","left","true"
"html-keyboard-response","22","33829","0.0-2.0-0.10","1070","49","post","7","morning","2026-05-20","2026-06-01","2026-06-07T17:23:30.554Z","Mozilla/5.0 (Linux; Android 16; SM-S916U Build/BP4A.251205.006; wv) AppleWebKit/537.36 (KHTML, like Gecko) Version/4.0 Chrome/148.0.7778.215 Mobile Safari/537.36","328","577","420","","null","<div style=""font-size:60px;"">+</div>","null","fixation","","","","","","","","","","","",""
"html-button-response","23","36357","0.0-2.0-1.10","1070","49","post","7","morning","2026-05-20","2026-06-01","2026-06-07T17:23:30.554Z","Mozilla/5.0 (Linux; Android 16; SM-S916U Build/BP4A.251205.006; wv) AppleWebKit/537.36 (KHTML, like Gecko) Version/4.0 Chrome/148.0.7778.215 Mobile Safari/537.36","328","577","420","","2526","<div class=""prompt"" style=""font-size:24px; margin-bottom:20px;"">Which word describes you more?</div>","1","pairing","11","asset","tolerant","PosPos","90","95","positive","positive","5","tolerant","right","true"
"html-keyboard-response","24","37158","0.0-2.0-0.11","1070","49","post","7","morning","2026-05-20","2026-06-01","2026-06-07T17:23:30.554Z","Mozilla/5.0 (Linux; Android 16; SM-S916U Build/BP4A.251205.006; wv) AppleWebKit/537.36 (KHTML, like Gecko) Version/4.0 Chrome/148.0.7778.215 Mobile Safari/537.36","328","577","420","","null","<div style=""font-size:60px;"">+</div>","null","fixation","","","","","","","","","","","",""
"html-button-response","25","38552","0.0-2.0-1.11","1070","49","post","7","morning","2026-05-20","2026-06-01","2026-06-07T17:23:30.554Z","Mozilla/5.0 (Linux; Android 16; SM-S916U Build/BP4A.251205.006; wv) AppleWebKit/537.36 (KHTML, like Gecko) Version/4.0 Chrome/148.0.7778.215 Mobile Safari/537.36","328","577","420","","1392","<div class=""prompt"" style=""font-size:24px; margin-bottom:20px;"">Which word describes you more?</div>","0","pairing","12","knowledgeable","arrogant","PosNeg","86","60","positive","negative","26","knowledgeable","left","true"
"html-keyboard-response","26","39354","0.0-2.0-0.12","1070","49","post","7","morning","2026-05-20","2026-06-01","2026-06-07T17:23:30.554Z","Mozilla/5.0 (Linux; Android 16; SM-S916U Build/BP4A.251205.006; wv) AppleWebKit/537.36 (KHTML, like Gecko) Version/4.0 Chrome/148.0.7778.215 Mobile Safari/537.36","328","577","420","","null","<div style=""font-size:60px;"">+</div>","null","fixation","","","","","","","","","","","",""
"html-button-response","27","42686","0.0-2.0-1.12","1070","49","post","7","morning","2026-05-20","2026-06-01","2026-06-07T17:23:30.554Z","Mozilla/5.0 (Linux; Android 16; SM-S916U Build/BP4A.251205.006; wv) AppleWebKit/537.36 (KHTML, like Gecko) Version/4.0 Chrome/148.0.7778.215 Mobile Safari/537.36","328","577","420","","3330","<div class=""prompt"" style=""font-size:24px; margin-bottom:20px;"">Which word describes you more?</div>","1","pairing","13","miserable","anxious","NegNeg","0","8","negative","negative","8","anxious","right","true"
"html-keyboard-response","28","43488","0.0-2.0-0.13","1070","49","post","7","morning","2026-05-20","2026-06-01","2026-06-07T17:23:30.554Z","Mozilla/5.0 (Linux; Android 16; SM-S916U Build/BP4A.251205.006; wv) AppleWebKit/537.36 (KHTML, like Gecko) Version/4.0 Chrome/148.0.7778.215 Mobile Safari/537.36","328","577","420","","null","<div style=""font-size:60px;"">+</div>","null","fixation","","","","","","","","","","","",""
"html-button-response","29","44853","0.0-2.0-1.13","1070","49","post","7","morning","2026-05-20","2026-06-01","2026-06-07T17:23:30.554Z","Mozilla/5.0 (Linux; Android 16; SM-S916U Build/BP4A.251205.006; wv) AppleWebKit/537.36 (KHTML, like Gecko) Version/4.0 Chrome/148.0.7778.215 Mobile Safari/537.36","328","577","420","","1363","<div class=""prompt"" style=""font-size:24px; margin-bottom:20px;"">Which word describes you more?</div>","0","pairing","14","gentle","coward","PosNeg","66","0","positive","negative","66","gentle","left","true"
"html-keyboard-response","30","45655","0.0-2.0-0.14","1070","49","post","7","morning","2026-05-20","2026-06-01","2026-06-07T17:23:30.554Z","Mozilla/5.0 (Linux; Android 16; SM-S916U Build/BP4A.251205.006; wv) AppleWebKit/537.36 (KHTML, like Gecko) Version/4.0 Chrome/148.0.7778.215 Mobile Safari/537.36","328","577","420","","null","<div style=""font-size:60px;"">+</div>","null","fixation","","","","","","","","","","","",""
"html-button-response","31","47937","0.0-2.0-1.14","1070","49","post","7","morning","2026-05-20","2026-06-01","2026-06-07T17:23:30.554Z","Mozilla/5.0 (Linux; Android 16; SM-S916U Build/BP4A.251205.006; wv) AppleWebKit/537.36 (KHTML, like Gecko) Version/4.0 Chrome/148.0.7778.215 Mobile Safari/537.36","328","577","420","","2280","<div class=""prompt"" style=""font-size:24px; margin-bottom:20px;"">Which word describes you more?</div>","1","pairing","15","arrogant","blissful","PosNeg","60","86","negative","positive","26","blissful","right","true"
"html-keyboard-response","32","48738","0.0-2.0-0.15","1070","49","post","7","morning","2026-05-20","2026-06-01","2026-06-07T17:23:30.554Z","Mozilla/5.0 (Linux; Android 16; SM-S916U Build/BP4A.251205.006; wv) AppleWebKit/537.36 (KHTML, like Gecko) Version/4.0 Chrome/148.0.7778.215 Mobile Safari/537.36","328","577","420","","null","<div style=""font-size:60px;"">+</div>","null","fixation","","","","","","","","","","","",""
"html-button-response","33","50250","0.0-2.0-1.15","1070","49","post","7","morning","2026-05-20","2026-06-01","2026-06-07T17:23:30.554Z","Mozilla/5.0 (Linux; Android 16; SM-S916U Build/BP4A.251205.006; wv) AppleWebKit/537.36 (KHTML, like Gecko) Version/4.0 Chrome/148.0.7778.215 Mobile Safari/537.36","328","577","420","","1509","<div class=""prompt"" style=""font-size:24px; margin-bottom:20px;"">Which word describes you more?</div>","1","pairing","16","unique","heartbroken","PosNeg","49","83","positive","negative","34","heartbroken","right","true"
"html-keyboard-response","34","51052","0.0-2.0-0.16","1070","49","post","7","morning","2026-05-20","2026-06-01","2026-06-07T17:23:30.554Z","Mozilla/5.0 (Linux; Android 16; SM-S916U Build/BP4A.251205.006; wv) AppleWebKit/537.36 (KHTML, like Gecko) Version/4.0 Chrome/148.0.7778.215 Mobile Safari/537.36","328","577","420","","null","<div style=""font-size:60px;"">+</div>","null","fixation","","","","","","","","","","","",""
"html-button-response","35","56054","0.0-2.0-1.16","1070","49","post","7","morning","2026-05-20","2026-06-01","2026-06-07T17:23:30.554Z","Mozilla/5.0 (Linux; Android 16; SM-S916U Build/BP4A.251205.006; wv) AppleWebKit/537.36 (KHTML, like Gecko) Version/4.0 Chrome/148.0.7778.215 Mobile Safari/537.36","328","577","420","","null","<div class=""prompt"" style=""font-size:24px; margin-bottom:20px;"">Which word describes you more?</div>","null","pairing","17","inadequate","fraud","NegNeg","12","5","negative","negative","7","null","null","false"
"html-keyboard-response","36","56855","0.0-2.0-0.17","1070","49","post","7","morning","2026-05-20","2026-06-01","2026-06-07T17:23:30.554Z","Mozilla/5.0 (Linux; Android 16; SM-S916U Build/BP4A.251205.006; wv) AppleWebKit/537.36 (KHTML, like Gecko) Version/4.0 Chrome/148.0.7778.215 Mobile Safari/537.36","328","577","420","","null","<div style=""font-size:60px;"">+</div>","null","fixation","","","","","","","","","","","",""
"html-button-response","37","58287","0.0-2.0-1.17","1070","49","post","7","morning","2026-05-20","2026-06-01","2026-06-07T17:23:30.554Z","Mozilla/5.0 (Linux; Android 16; SM-S916U Build/BP4A.251205.006; wv) AppleWebKit/537.36 (KHTML, like Gecko) Version/4.0 Chrome/148.0.7778.215 Mobile Safari/537.36","328","577","420","","1430","<div class=""prompt"" style=""font-size:24px; margin-bottom:20px;"">Which word describes you more?</div>","0","pairing","18","playful","excited","PosPos","100","85","positive","positive","15","playful","left","true"
"html-keyboard-response","38","59089","0.0-2.0-0.18","1070","49","post","7","morning","2026-05-20","2026-06-01","2026-06-07T17:23:30.554Z","Mozilla/5.0 (Linux; Android 16; SM-S916U Build/BP4A.251205.006; wv) AppleWebKit/537.36 (KHTML, like Gecko) Version/4.0 Chrome/148.0.7778.215 Mobile Safari/537.36","328","577","420","","null","<div style=""font-size:60px;"">+</div>","null","fixation","","","","","","","","","","","",""
"html-button-response","39","60685","0.0-2.0-1.18","1070","49","post","7","morning","2026-05-20","2026-06-01","2026-06-07T17:23:30.554Z","Mozilla/5.0 (Linux; Android 16; SM-S916U Build/BP4A.251205.006; wv) AppleWebKit/537.36 (KHTML, like Gecko) Version/4.0 Chrome/148.0.7778.215 Mobile Safari/537.36","328","577","420","","1594","<div class=""prompt"" style=""font-size:24px; margin-bottom:20px;"">Which word describes you more?</div>","0","pairing","19","safe","incompetent","PosNeg","97","0","positive","negative","97","safe","left","true"
"html-keyboard-response","40","61487","0.0-2.0-0.19","1070","49","post","7","morning","2026-05-20","2026-06-01","2026-06-07T17:23:30.554Z","Mozilla/5.0 (Linux; Android 16; SM-S916U Build/BP4A.251205.006; wv) AppleWebKit/537.36 (KHTML, like Gecko) Version/4.0 Chrome/148.0.7778.215 Mobile Safari/537.36","328","577","420","","null","<div style=""font-size:60px;"">+</div>","null","fixation","","","","","","","","","","","",""
"html-button-response","41","62930","0.0-2.0-1.19","1070","49","post","7","morning","2026-05-20","2026-06-01","2026-06-07T17:23:30.554Z","Mozilla/5.0 (Linux; Android 16; SM-S916U Build/BP4A.251205.006; wv) AppleWebKit/537.36 (KHTML, like Gecko) Version/4.0 Chrome/148.0.7778.215 Mobile Safari/537.36","328","577","420","","1442","<div class=""prompt"" style=""font-size:24px; margin-bottom:20px;"">Which word describes you more?</div>","0","pairing","20","respectable","flawless","PosPos","92","0","positive","positive","92","respectable","left","true"
"html-keyboard-response","42","63732","0.0-2.0-0.20","1070","49","post","7","morning","2026-05-20","2026-06-01","2026-06-07T17:23:30.554Z","Mozilla/5.0 (Linux; Android 16; SM-S916U Build/BP4A.251205.006; wv) AppleWebKit/537.36 (KHTML, like Gecko) Version/4.0 Chrome/148.0.7778.215 Mobile Safari/537.36","328","577","420","","null","<div style=""font-size:60px;"">+</div>","null","fixation","","","","","","","","","","","",""
"html-button-response","43","65262","0.0-2.0-1.20","1070","49","post","7","morning","2026-05-20","2026-06-01","2026-06-07T17:23:30.554Z","Mozilla/5.0 (Linux; Android 16; SM-S916U Build/BP4A.251205.006; wv) AppleWebKit/537.36 (KHTML, like Gecko) Version/4.0 Chrome/148.0.7778.215 Mobile Safari/537.36","328","577","420","","1527","<div class=""prompt"" style=""font-size:24px; margin-bottom:20px;"">Which word describes you more?</div>","1","pairing","21","fraud","regretful","NegNeg","5","59","negative","negative","54","regretful","right","true"
"html-keyboard-response","44","66064","0.0-2.0-0.21","1070","49","post","7","morning","2026-05-20","2026-06-01","2026-06-07T17:23:30.554Z","Mozilla/5.0 (Linux; Android 16; SM-S916U Build/BP4A.251205.006; wv) AppleWebKit/537.36 (KHTML, like Gecko) Version/4.0 Chrome/148.0.7778.215 Mobile Safari/537.36","328","577","420","","null","<div style=""font-size:60px;"">+</div>","null","fixation","","","","","","","","","","","",""
"html-button-response","45","67970","0.0-2.0-1.21","1070","49","post","7","morning","2026-05-20","2026-06-01","2026-06-07T17:23:30.554Z","Mozilla/5.0 (Linux; Android 16; SM-S916U Build/BP4A.251205.006; wv) AppleWebKit/537.36 (KHTML, like Gecko) Version/4.0 Chrome/148.0.7778.215 Mobile Safari/537.36","328","577","420","","1905","<div class=""prompt"" style=""font-size:24px; margin-bottom:20px;"">Which word describes you more?</div>","0","pairing","22","selfish","lifeless","NegNeg","34","0","negative","negative","34","selfish","left","true"
"html-keyboard-response","46","68771","0.0-2.0-0.22","1070","49","post","7","morning","2026-05-20","2026-06-01","2026-06-07T17:23:30.554Z","Mozilla/5.0 (Linux; Android 16; SM-S916U Build/BP4A.251205.006; wv) AppleWebKit/537.36 (KHTML, like Gecko) Version/4.0 Chrome/148.0.7778.215 Mobile Safari/537.36","328","577","420","","null","<div style=""font-size:60px;"">+</div>","null","fixation","","","","","","","","","","","",""
"html-button-response","47","70360","0.0-2.0-1.22","1070","49","post","7","morning","2026-05-20","2026-06-01","2026-06-07T17:23:30.554Z","Mozilla/5.0 (Linux; Android 16; SM-S916U Build/BP4A.251205.006; wv) AppleWebKit/537.36 (KHTML, like Gecko) Version/4.0 Chrome/148.0.7778.215 Mobile Safari/537.36","328","577","420","","1588","<div class=""prompt"" style=""font-size:24px; margin-bottom:20px;"">Which word describes you more?</div>","1","pairing","23","liar","credible","PosNeg","13","95","negative","positive","82","credible","right","true"
"html-keyboard-response","48","71163","0.0-2.0-0.23","1070","49","post","7","morning","2026-05-20","2026-06-01","2026-06-07T17:23:30.554Z","Mozilla/5.0 (Linux; Android 16; SM-S916U Build/BP4A.251205.006; wv) AppleWebKit/537.36 (KHTML, like Gecko) Version/4.0 Chrome/148.0.7778.215 Mobile Safari/537.36","328","577","420","","null","<div style=""font-size:60px;"">+</div>","null","fixation","","","","","","","","","","","",""
"html-button-response","49","73089","0.0-2.0-1.23","1070","49","post","7","morning","2026-05-20","2026-06-01","2026-06-07T17:23:30.554Z","Mozilla/5.0 (Linux; Android 16; SM-S916U Build/BP4A.251205.006; wv) AppleWebKit/537.36 (KHTML, like Gecko) Version/4.0 Chrome/148.0.7778.215 Mobile Safari/537.36","328","577","420","","1925","<div class=""prompt"" style=""font-size:24px; margin-bottom:20px;"">Which word describes you more?</div>","1","pairing","24","burden","heartbroken","NegNeg","7","83","negative","negative","76","heartbroken","right","true"
"instructions","50","74301","0.0-3.0","1070","49","post","7","morning","2026-05-20","2026-06-01","2026-06-07T17:23:30.554Z","Mozilla/5.0 (Linux; Android 16; SM-S916U Build/BP4A.251205.006; wv) AppleWebKit/537.36 (KHTML, like Gecko) Version/4.0 Chrome/148.0.7778.215 Mobile Safari/537.36","328","577","420","[{""page_index"":0,""viewing_time"":1211}]","1211","","","","","","","","","","","","","","",""
