"trial_type","trial_index","time_elapsed","internal_node_id","PUNS_ID","session_number","session_phase","session_day","session_slot","ema_start_date","ema_post_start_date","experiment_start","browser","screen_width","screen_height","timezone_offset","view_history","rt","stimulus","response","which_experiment_phase","trial_number","left_word","right_word","valence","left_base_rating","right_base_rating","left_valence","right_valence","abs_diff","participant_response","chosen_side","valid_response"
"pavlovia","0","2003","0.0-0.0","1014","32","post","1","afternoon","2026-02-05","2026-02-17","2026-02-17T22:01:04.074Z","Mozilla/5.0 (iPhone; CPU iPhone OS 18_7 like Mac OS X) AppleWebKit/605.1.15 (KHTML, like Gecko) Mobile/15E148","361","628","480","","","","","","","","","","","","","","","","",""
"instructions","1","5632","0.0-1.0","1014","32","post","1","afternoon","2026-02-05","2026-02-17","2026-02-17T22:01:04.074Z","Mozilla/5.0 (iPhone; CPU iPhone OS 18_7 like Mac OS X) AppleWebKit/605.1.15 (KHTML, like Gecko) Mobile/15E148","361","628","480","[{""page_index"":0,""viewing_time"":816},{""page_index"":1,""viewing_time"":663},{""page_index"":2,""viewing_time"":1445},{""page_index"":3,""viewing_time"":700}]","3625","","","","","","","","","","","","","","",""
"html-keyboard-response","2","6437","0.0-2.0-0.0","1014","32","post","1","afternoon","2026-02-05","2026-02-17","2026-02-17T22:01:04.074Z","Mozilla/5.0 (iPhone; CPU iPhone OS 18_7 like Mac OS X) AppleWebKit/605.1.15 (KHTML, like Gecko) Mobile/15E148","361","628","480","","null","<div style=""font-size:60px;"">+</div>","null","fixation","","","","","","","","","","","",""
"html-button-response","3","7768","0.0-2.0-1.0","1014","32","post","1","afternoon","2026-02-05","2026-02-17","2026-02-17T22:01:04.074Z","Mozilla/5.0 (iPhone; CPU iPhone OS 18_7 like Mac OS X) AppleWebKit/605.1.15 (KHTML, like Gecko) Mobile/15E148","361","628","480","","1326","<div class=""prompt"" style=""font-size:24px; margin-bottom:20px;"">Which word describes you more?</div>","1","pairing","1","sloppy","merciful","PosNeg","16","11","negative","positive","5","merciful","right","true"
"html-keyboard-response","4","8571","0.0-2.0-0.1","1014","32","post","1","afternoon","2026-02-05","2026-02-17","2026-02-17T22:01:04.074Z","Mozilla/5.0 (iPhone; CPU iPhone OS 18_7 like Mac OS X) AppleWebKit/605.1.15 (KHTML, like Gecko) Mobile/15E148","361","628","480","","null","<div style=""font-size:60px;"">+</div>","null","fixation","","","","","","","","","","","",""
"html-button-response","5","9819","0.0-2.0-1.1","1014","32","post","1","afternoon","2026-02-05","2026-02-17","2026-02-17T22:01:04.074Z","Mozilla/5.0 (iPhone; CPU iPhone OS 18_7 like Mac OS X) AppleWebKit/605.1.15 (KHTML, like Gecko) Mobile/15E148","361","628","480","","1244","<div class=""prompt"" style=""font-size:24px; margin-bottom:20px;"">Which word describes you more?</div>","0","pairing","2","decisive","awkward","PosNeg","44","51","positive","negative","7","decisive","left","true"
"html-keyboard-response","6","10621","0.0-2.0-0.2","1014","32","post","1","afternoon","2026-02-05","2026-02-17","2026-02-17T22:01:04.074Z","Mozilla/5.0 (iPhone; CPU iPhone OS 18_7 like Mac OS X) AppleWebKit/605.1.15 (KHTML, like Gecko) Mobile/15E148","361","628","480","","null","<div style=""font-size:60px;"">+</div>","null","fixation","","","","","","","","","","","",""
"html-button-response","7","11735","0.0-2.0-1.2","1014","32","post","1","afternoon","2026-02-05","2026-02-17","2026-02-17T22:01:04.074Z","Mozilla/5.0 (iPhone; CPU iPhone OS 18_7 like Mac OS X) AppleWebKit/605.1.15 (KHTML, like Gecko) Mobile/15E148","361","628","480","","1111","<div class=""prompt"" style=""font-size:24px; margin-bottom:20px;"">Which word describes you more?</div>","0","pairing","3","carefree","hesitant","PosNeg","70","38","positive","negative","32","carefree","left","true"
"html-keyboard-response","8","12537","0.0-2.0-0.3","1014","32","post","1","afternoon","2026-02-05","2026-02-17","2026-02-17T22:01:04.074Z","Mozilla/5.0 (iPhone; CPU iPhone OS 18_7 like Mac OS X) AppleWebKit/605.1.15 (KHTML, like Gecko) Mobile/15E148","361","628","480","","null","<div style=""font-size:60px;"">+</div>","null","fixation","","","","","","","","","","","",""
"html-button-response","9","13694","0.0-2.0-1.3","1014","32","post","1","afternoon","2026-02-05","2026-02-17","2026-02-17T22:01:04.074Z","Mozilla/5.0 (iPhone; CPU iPhone OS 18_7 like Mac OS X) AppleWebKit/605.1.15 (KHTML, like Gecko) Mobile/15E148","361","628","480","","1155","<div class=""prompt"" style=""font-size:24px; margin-bottom:20px;"">Which word describes you more?</div>","1","pairing","4","decisive","sensible","PosPos","44","100","positive","positive","56","sensible","right","true"
"html-keyboard-response","10","14497","0.0-2.0-0.4","1014","32","post","1","afternoon","2026-02-05","2026-02-17","2026-02-17T22:01:04.074Z","Mozilla/5.0 (iPhone; CPU iPhone OS 18_7 like Mac OS X) AppleWebKit/605.1.15 (KHTML, like Gecko) Mobile/15E148","361","628","480","","null","<div style=""font-size:60px;"">+</div>","null","fixation","","","","","","","","","","","",""
"html-button-response","11","15337","0.0-2.0-1.4","1014","32","post","1","afternoon","2026-02-05","2026-02-17","2026-02-17T22:01:04.074Z","Mozilla/5.0 (iPhone; CPU iPhone OS 18_7 like Mac OS X) AppleWebKit/605.1.15 (KHTML, like Gecko) Mobile/15E148","361","628","480","","839","<div class=""prompt"" style=""font-size:24px; margin-bottom:20px;"">Which word describes you more?</div>","1","pairing","5","awkward","safe","PosNeg","51","98","negative","positive","47","safe","right","true"
"html-keyboard-response","12","16140","0.0-2.0-0.5","1014","32","post","1","afternoon","2026-02-05","2026-02-17","2026-02-17T22:01:04.074Z","Mozilla/5.0 (iPhone; CPU iPhone OS 18_7 like Mac OS X) AppleWebKit/605.1.15 (KHTML, like Gecko) Mobile/15E148","361","628","480","","null","<div style=""font-size:60px;"">+</div>","null","fixation","","","","","","","","","","","",""
"html-button-response","13","17133","0.0-2.0-1.5","1014","32","post","1","afternoon","2026-02-05","2026-02-17","2026-02-17T22:01:04.074Z","Mozilla/5.0 (iPhone; CPU iPhone OS 18_7 like Mac OS X) AppleWebKit/605.1.15 (KHTML, like Gecko) Mobile/15E148","361","628","480","","991","<div class=""prompt"" style=""font-size:24px; margin-bottom:20px;"">Which word describes you more?</div>","0","pairing","6","charming","fun","PosPos","94","88","positive","positive","6","charming","left","true"
"html-keyboard-response","14","17936","0.0-2.0-0.6","1014","32","post","1","afternoon","2026-02-05","2026-02-17","2026-02-17T22:01:04.074Z","Mozilla/5.0 (iPhone; CPU iPhone OS 18_7 like Mac OS X) AppleWebKit/605.1.15 (KHTML, like Gecko) Mobile/15E148","361","628","480","","null","<div style=""font-size:60px;"">+</div>","null","fixation","","","","","","","","","","","",""
"html-button-response","15","19149","0.0-2.0-1.6","1014","32","post","1","afternoon","2026-02-05","2026-02-17","2026-02-17T22:01:04.074Z","Mozilla/5.0 (iPhone; CPU iPhone OS 18_7 like Mac OS X) AppleWebKit/605.1.15 (KHTML, like Gecko) Mobile/15E148","361","628","480","","1208","<div class=""prompt"" style=""font-size:24px; margin-bottom:20px;"">Which word describes you more?</div>","0","pairing","7","cooperative","toxic","PosNeg","84","6","positive","negative","78","cooperative","left","true"
"html-keyboard-response","16","19952","0.0-2.0-0.7","1014","32","post","1","afternoon","2026-02-05","2026-02-17","2026-02-17T22:01:04.074Z","Mozilla/5.0 (iPhone; CPU iPhone OS 18_7 like Mac OS X) AppleWebKit/605.1.15 (KHTML, like Gecko) Mobile/15E148","361","628","480","","null","<div style=""font-size:60px;"">+</div>","null","fixation","","","","","","","","","","","",""
"html-button-response","17","20892","0.0-2.0-1.7","1014","32","post","1","afternoon","2026-02-05","2026-02-17","2026-02-17T22:01:04.074Z","Mozilla/5.0 (iPhone; CPU iPhone OS 18_7 like Mac OS X) AppleWebKit/605.1.15 (KHTML, like Gecko) Mobile/15E148","361","628","480","","938","<div class=""prompt"" style=""font-size:24px; margin-bottom:20px;"">Which word describes you more?</div>","1","pairing","8","hesitant","seeker","PosNeg","38","49","negative","positive","11","seeker","right","true"
"html-keyboard-response","18","21694","0.0-2.0-0.8","1014","32","post","1","afternoon","2026-02-05","2026-02-17","2026-02-17T22:01:04.074Z","Mozilla/5.0 (iPhone; CPU iPhone OS 18_7 like Mac OS X) AppleWebKit/605.1.15 (KHTML, like Gecko) Mobile/15E148","361","628","480","","null","<div style=""font-size:60px;"">+</div>","null","fixation","","","","","","","","","","","",""
"html-button-response","19","22610","0.0-2.0-1.8","1014","32","post","1","afternoon","2026-02-05","2026-02-17","2026-02-17T22:01:04.074Z","Mozilla/5.0 (iPhone; CPU iPhone OS 18_7 like Mac OS X) AppleWebKit/605.1.15 (KHTML, like Gecko) Mobile/15E148","361","628","480","","914","<div class=""prompt"" style=""font-size:24px; margin-bottom:20px;"">Which word describes you more?</div>","1","pairing","9","selfish","smart","PosNeg","3","85","negative","positive","82","smart","right","true"
"html-keyboard-response","20","23412","0.0-2.0-0.9","1014","32","post","1","afternoon","2026-02-05","2026-02-17","2026-02-17T22:01:04.074Z","Mozilla/5.0 (iPhone; CPU iPhone OS 18_7 like Mac OS X) AppleWebKit/605.1.15 (KHTML, like Gecko) Mobile/15E148","361","628","480","","null","<div style=""font-size:60px;"">+</div>","null","fixation","","","","","","","","","","","",""
"html-button-response","21","24928","0.0-2.0-1.9","1014","32","post","1","afternoon","2026-02-05","2026-02-17","2026-02-17T22:01:04.074Z","Mozilla/5.0 (iPhone; CPU iPhone OS 18_7 like Mac OS X) AppleWebKit/605.1.15 (KHTML, like Gecko) Mobile/15E148","361","628","480","","1514","<div class=""prompt"" style=""font-size:24px; margin-bottom:20px;"">Which word describes you more?</div>","1","pairing","10","inadequate","appealing","PosNeg","0","86","negative","positive","86","appealing","right","true"
"html-keyboard-response","22","25730","0.0-2.0-0.10","1014","32","post","1","afternoon","2026-02-05","2026-02-17","2026-02-17T22:01:04.074Z","Mozilla/5.0 (iPhone; CPU iPhone OS 18_7 like Mac OS X) AppleWebKit/605.1.15 (KHTML, like Gecko) Mobile/15E148","361","628","480","","null","<div style=""font-size:60px;"">+</div>","null","fixation","","","","","","","","","","","",""
"html-button-response","23","26930","0.0-2.0-1.10","1014","32","post","1","afternoon","2026-02-05","2026-02-17","2026-02-17T22:01:04.074Z","Mozilla/5.0 (iPhone; CPU iPhone OS 18_7 like Mac OS X) AppleWebKit/605.1.15 (KHTML, like Gecko) Mobile/15E148","361","628","480","","1197","<div class=""prompt"" style=""font-size:24px; margin-bottom:20px;"">Which word describes you more?</div>","0","pairing","11","hesitant","terrible","NegNeg","38","4","negative","negative","34","hesitant","left","true"
"html-keyboard-response","24","27732","0.0-2.0-0.11","1014","32","post","1","afternoon","2026-02-05","2026-02-17","2026-02-17T22:01:04.074Z","Mozilla/5.0 (iPhone; CPU iPhone OS 18_7 like Mac OS X) AppleWebKit/605.1.15 (KHTML, like Gecko) Mobile/15E148","361","628","480","","null","<div style=""font-size:60px;"">+</div>","null","fixation","","","","","","","","","","","",""
"html-button-response","25","28848","0.0-2.0-1.11","1014","32","post","1","afternoon","2026-02-05","2026-02-17","2026-02-17T22:01:04.074Z","Mozilla/5.0 (iPhone; CPU iPhone OS 18_7 like Mac OS X) AppleWebKit/605.1.15 (KHTML, like Gecko) Mobile/15E148","361","628","480","","1115","<div class=""prompt"" style=""font-size:24px; margin-bottom:20px;"">Which word describes you more?</div>","1","pairing","12","merciful","easygoing","PosPos","11","87","positive","positive","76","easygoing","right","true"
"html-keyboard-response","26","29650","0.0-2.0-0.12","1014","32","post","1","afternoon","2026-02-05","2026-02-17","2026-02-17T22:01:04.074Z","Mozilla/5.0 (iPhone; CPU iPhone OS 18_7 like Mac OS X) AppleWebKit/605.1.15 (KHTML, like Gecko) Mobile/15E148","361","628","480","","null","<div style=""font-size:60px;"">+</div>","null","fixation","","","","","","","","","","","",""
"html-button-response","27","30925","0.0-2.0-1.12","1014","32","post","1","afternoon","2026-02-05","2026-02-17","2026-02-17T22:01:04.074Z","Mozilla/5.0 (iPhone; CPU iPhone OS 18_7 like Mac OS X) AppleWebKit/605.1.15 (KHTML, like Gecko) Mobile/15E148","361","628","480","","1271","<div class=""prompt"" style=""font-size:24px; margin-bottom:20px;"">Which word describes you more?</div>","1","pairing","13","deceitful","skilled","PosNeg","2","83","negative","positive","81","skilled","right","true"
"html-keyboard-response","28","31728","0.0-2.0-0.13","1014","32","post","1","afternoon","2026-02-05","2026-02-17","2026-02-17T22:01:04.074Z","Mozilla/5.0 (iPhone; CPU iPhone OS 18_7 like Mac OS X) AppleWebKit/605.1.15 (KHTML, like Gecko) Mobile/15E148","361","628","480","","null","<div style=""font-size:60px;"">+</div>","null","fixation","","","","","","","","","","","",""
"html-button-response","29","32959","0.0-2.0-1.13","1014","32","post","1","afternoon","2026-02-05","2026-02-17","2026-02-17T22:01:04.074Z","Mozilla/5.0 (iPhone; CPU iPhone OS 18_7 like Mac OS X) AppleWebKit/605.1.15 (KHTML, like Gecko) Mobile/15E148","361","628","480","","1230","<div class=""prompt"" style=""font-size:24px; margin-bottom:20px;"">Which word describes you more?</div>","0","pairing","14","uninvited","liar","NegNeg","3","5","negative","negative","2","uninvited","left","true"
"html-keyboard-response","30","33762","0.0-2.0-0.14","1014","32","post","1","afternoon","2026-02-05","2026-02-17","2026-02-17T22:01:04.074Z","Mozilla/5.0 (iPhone; CPU iPhone OS 18_7 like Mac OS X) AppleWebKit/605.1.15 (KHTML, like Gecko) Mobile/15E148","361","628","480","","null","<div style=""font-size:60px;"">+</div>","null","fixation","","","","","","","","","","","",""
"html-button-response","31","35503","0.0-2.0-1.14","1014","32","post","1","afternoon","2026-02-05","2026-02-17","2026-02-17T22:01:04.074Z","Mozilla/5.0 (iPhone; CPU iPhone OS 18_7 like Mac OS X) AppleWebKit/605.1.15 (KHTML, like Gecko) Mobile/15E148","361","628","480","","1739","<div class=""prompt"" style=""font-size:24px; margin-bottom:20px;"">Which word describes you more?</div>","0","pairing","15","brave","unwanted","PosNeg","51","3","positive","negative","48","brave","left","true"
"html-keyboard-response","32","36306","0.0-2.0-0.15","1014","32","post","1","afternoon","2026-02-05","2026-02-17","2026-02-17T22:01:04.074Z","Mozilla/5.0 (iPhone; CPU iPhone OS 18_7 like Mac OS X) AppleWebKit/605.1.15 (KHTML, like Gecko) Mobile/15E148","361","628","480","","null","<div style=""font-size:60px;"">+</div>","null","fixation","","","","","","","","","","","",""
"html-button-response","33","37096","0.0-2.0-1.15","1014","32","post","1","afternoon","2026-02-05","2026-02-17","2026-02-17T22:01:04.074Z","Mozilla/5.0 (iPhone; CPU iPhone OS 18_7 like Mac OS X) AppleWebKit/605.1.15 (KHTML, like Gecko) Mobile/15E148","361","628","480","","788","<div class=""prompt"" style=""font-size:24px; margin-bottom:20px;"">Which word describes you more?</div>","0","pairing","16","capable","brave","PosPos","93","51","positive","positive","42","capable","left","true"
"html-keyboard-response","34","37899","0.0-2.0-0.16","1014","32","post","1","afternoon","2026-02-05","2026-02-17","2026-02-17T22:01:04.074Z","Mozilla/5.0 (iPhone; CPU iPhone OS 18_7 like Mac OS X) AppleWebKit/605.1.15 (KHTML, like Gecko) Mobile/15E148","361","628","480","","null","<div style=""font-size:60px;"">+</div>","null","fixation","","","","","","","","","","","",""
"html-button-response","35","38831","0.0-2.0-1.16","1014","32","post","1","afternoon","2026-02-05","2026-02-17","2026-02-17T22:01:04.074Z","Mozilla/5.0 (iPhone; CPU iPhone OS 18_7 like Mac OS X) AppleWebKit/605.1.15 (KHTML, like Gecko) Mobile/15E148","361","628","480","","930","<div class=""prompt"" style=""font-size:24px; margin-bottom:20px;"">Which word describes you more?</div>","1","pairing","17","rude","resourceful","PosNeg","0","70","negative","positive","70","resourceful","right","true"
"html-keyboard-response","36","39632","0.0-2.0-0.17","1014","32","post","1","afternoon","2026-02-05","2026-02-17","2026-02-17T22:01:04.074Z","Mozilla/5.0 (iPhone; CPU iPhone OS 18_7 like Mac OS X) AppleWebKit/605.1.15 (KHTML, like Gecko) Mobile/15E148","361","628","480","","null","<div style=""font-size:60px;"">+</div>","null","fixation","","","","","","","","","","","",""
"html-button-response","37","40499","0.0-2.0-1.17","1014","32","post","1","afternoon","2026-02-05","2026-02-17","2026-02-17T22:01:04.074Z","Mozilla/5.0 (iPhone; CPU iPhone OS 18_7 like Mac OS X) AppleWebKit/605.1.15 (KHTML, like Gecko) Mobile/15E148","361","628","480","","864","<div class=""prompt"" style=""font-size:24px; margin-bottom:20px;"">Which word describes you more?</div>","0","pairing","18","easygoing","excited","PosPos","87","91","positive","positive","4","easygoing","left","true"
"html-keyboard-response","38","41301","0.0-2.0-0.18","1014","32","post","1","afternoon","2026-02-05","2026-02-17","2026-02-17T22:01:04.074Z","Mozilla/5.0 (iPhone; CPU iPhone OS 18_7 like Mac OS X) AppleWebKit/605.1.15 (KHTML, like Gecko) Mobile/15E148","361","628","480","","null","<div style=""font-size:60px;"">+</div>","null","fixation","","","","","","","","","","","",""
"html-button-response","39","43034","0.0-2.0-1.18","1014","32","post","1","afternoon","2026-02-05","2026-02-17","2026-02-17T22:01:04.074Z","Mozilla/5.0 (iPhone; CPU iPhone OS 18_7 like Mac OS X) AppleWebKit/605.1.15 (KHTML, like Gecko) Mobile/15E148","361","628","480","","1731","<div class=""prompt"" style=""font-size:24px; margin-bottom:20px;"">Which word describes you more?</div>","1","pairing","19","traitor","loser","NegNeg","12","13","negative","negative","1","loser","right","true"
"html-keyboard-response","40","43836","0.0-2.0-0.19","1014","32","post","1","afternoon","2026-02-05","2026-02-17","2026-02-17T22:01:04.074Z","Mozilla/5.0 (iPhone; CPU iPhone OS 18_7 like Mac OS X) AppleWebKit/605.1.15 (KHTML, like Gecko) Mobile/15E148","361","628","480","","null","<div style=""font-size:60px;"">+</div>","null","fixation","","","","","","","","","","","",""
"html-button-response","41","45169","0.0-2.0-1.19","1014","32","post","1","afternoon","2026-02-05","2026-02-17","2026-02-17T22:01:04.074Z","Mozilla/5.0 (iPhone; CPU iPhone OS 18_7 like Mac OS X) AppleWebKit/605.1.15 (KHTML, like Gecko) Mobile/15E148","361","628","480","","1331","<div class=""prompt"" style=""font-size:24px; margin-bottom:20px;"">Which word describes you more?</div>","0","pairing","20","cooperative","merciful","PosPos","84","11","positive","positive","73","cooperative","left","true"
"html-keyboard-response","42","45971","0.0-2.0-0.20","1014","32","post","1","afternoon","2026-02-05","2026-02-17","2026-02-17T22:01:04.074Z","Mozilla/5.0 (iPhone; CPU iPhone OS 18_7 like Mac OS X) AppleWebKit/605.1.15 (KHTML, like Gecko) Mobile/15E148","361","628","480","","null","<div style=""font-size:60px;"">+</div>","null","fixation","","","","","","","","","","","",""
"html-button-response","43","47021","0.0-2.0-1.20","1014","32","post","1","afternoon","2026-02-05","2026-02-17","2026-02-17T22:01:04.074Z","Mozilla/5.0 (iPhone; CPU iPhone OS 18_7 like Mac OS X) AppleWebKit/605.1.15 (KHTML, like Gecko) Mobile/15E148","361","628","480","","1047","<div class=""prompt"" style=""font-size:24px; margin-bottom:20px;"">Which word describes you more?</div>","1","pairing","21","untrustworthy","fool","NegNeg","10","22","negative","negative","12","fool","right","true"
"html-keyboard-response","44","47823","0.0-2.0-0.21","1014","32","post","1","afternoon","2026-02-05","2026-02-17","2026-02-17T22:01:04.074Z","Mozilla/5.0 (iPhone; CPU iPhone OS 18_7 like Mac OS X) AppleWebKit/605.1.15 (KHTML, like Gecko) Mobile/15E148","361","628","480","","null","<div style=""font-size:60px;"">+</div>","null","fixation","","","","","","","","","","","",""
"html-button-response","45","49022","0.0-2.0-1.21","1014","32","post","1","afternoon","2026-02-05","2026-02-17","2026-02-17T22:01:04.074Z","Mozilla/5.0 (iPhone; CPU iPhone OS 18_7 like Mac OS X) AppleWebKit/605.1.15 (KHTML, like Gecko) Mobile/15E148","361","628","480","","1198","<div class=""prompt"" style=""font-size:24px; margin-bottom:20px;"">Which word describes you more?</div>","0","pairing","22","jerk","garbage","NegNeg","3","1","negative","negative","2","jerk","left","true"
"html-keyboard-response","46","49825","0.0-2.0-0.22","1014","32","post","1","afternoon","2026-02-05","2026-02-17","2026-02-17T22:01:04.074Z","Mozilla/5.0 (iPhone; CPU iPhone OS 18_7 like Mac OS X) AppleWebKit/605.1.15 (KHTML, like Gecko) Mobile/15E148","361","628","480","","null","<div style=""font-size:60px;"">+</div>","null","fixation","","","","","","","","","","","",""
"html-button-response","47","50950","0.0-2.0-1.22","1014","32","post","1","afternoon","2026-02-05","2026-02-17","2026-02-17T22:01:04.074Z","Mozilla/5.0 (iPhone; CPU iPhone OS 18_7 like Mac OS X) AppleWebKit/605.1.15 (KHTML, like Gecko) Mobile/15E148","361","628","480","","1123","<div class=""prompt"" style=""font-size:24px; margin-bottom:20px;"">Which word describes you more?</div>","1","pairing","23","bully","outcast","NegNeg","0","43","negative","negative","43","outcast","right","true"
"html-keyboard-response","48","51752","0.0-2.0-0.23","1014","32","post","1","afternoon","2026-02-05","2026-02-17","2026-02-17T22:01:04.074Z","Mozilla/5.0 (iPhone; CPU iPhone OS 18_7 like Mac OS X) AppleWebKit/605.1.15 (KHTML, like Gecko) Mobile/15E148","361","628","480","","null","<div style=""font-size:60px;"">+</div>","null","fixation","","","","","","","","","","","",""
"html-button-response","49","52591","0.0-2.0-1.23","1014","32","post","1","afternoon","2026-02-05","2026-02-17","2026-02-17T22:01:04.074Z","Mozilla/5.0 (iPhone; CPU iPhone OS 18_7 like Mac OS X) AppleWebKit/605.1.15 (KHTML, like Gecko) Mobile/15E148","361","628","480","","836","<div class=""prompt"" style=""font-size:24px; margin-bottom:20px;"">Which word describes you more?</div>","0","pairing","24","sensible","loser","PosNeg","100","13","positive","negative","87","sensible","left","true"
"instructions","50","53317","0.0-3.0","1014","32","post","1","afternoon","2026-02-05","2026-02-17","2026-02-17T22:01:04.074Z","Mozilla/5.0 (iPhone; CPU iPhone OS 18_7 like Mac OS X) AppleWebKit/605.1.15 (KHTML, like Gecko) Mobile/15E148","361","628","480","[{""page_index"":0,""viewing_time"":722}]","723","","","","","","","","","","","","","","",""
