"trial_type","trial_index","time_elapsed","internal_node_id","PUNS_ID","session_number","session_phase","session_day","session_slot","ema_start_date","ema_post_start_date","experiment_start","browser","screen_width","screen_height","timezone_offset","view_history","rt","stimulus","response","which_experiment_phase","trial_number","left_word","right_word","valence","left_base_rating","right_base_rating","left_valence","right_valence","abs_diff","participant_response","chosen_side","valid_response"
"pavlovia","0","1355","0.0-0.0","1050","2","pre","1","afternoon","2026-03-31","2026-04-14","2026-03-31T18:07:48.589Z","Mozilla/5.0 (iPhone; CPU iPhone OS 18_7 like Mac OS X) AppleWebKit/605.1.15 (KHTML, like Gecko) Mobile/15E148","358","632","240","","","","","","","","","","","","","","","","",""
"instructions","1","8523","0.0-1.0","1050","2","pre","1","afternoon","2026-03-31","2026-04-14","2026-03-31T18:07:48.589Z","Mozilla/5.0 (iPhone; CPU iPhone OS 18_7 like Mac OS X) AppleWebKit/605.1.15 (KHTML, like Gecko) Mobile/15E148","358","632","240","[{""page_index"":0,""viewing_time"":1946},{""page_index"":1,""viewing_time"":836},{""page_index"":2,""viewing_time"":2546},{""page_index"":3,""viewing_time"":1836}]","7164","","","","","","","","","","","","","","",""
"html-keyboard-response","2","9327","0.0-2.0-0.0","1050","2","pre","1","afternoon","2026-03-31","2026-04-14","2026-03-31T18:07:48.589Z","Mozilla/5.0 (iPhone; CPU iPhone OS 18_7 like Mac OS X) AppleWebKit/605.1.15 (KHTML, like Gecko) Mobile/15E148","358","632","240","","null","<div style=""font-size:60px;"">+</div>","null","fixation","","","","","","","","","","","",""
"html-button-response","3","11790","0.0-2.0-1.0","1050","2","pre","1","afternoon","2026-03-31","2026-04-14","2026-03-31T18:07:48.589Z","Mozilla/5.0 (iPhone; CPU iPhone OS 18_7 like Mac OS X) AppleWebKit/605.1.15 (KHTML, like Gecko) Mobile/15E148","358","632","240","","2457","<div class=""prompt"" style=""font-size:24px; margin-bottom:20px;"">Which word describes you more?</div>","0","pairing","1","helper","rude","PosNeg","36","78","positive","negative","42","helper","left","true"
"html-keyboard-response","4","12594","0.0-2.0-0.1","1050","2","pre","1","afternoon","2026-03-31","2026-04-14","2026-03-31T18:07:48.589Z","Mozilla/5.0 (iPhone; CPU iPhone OS 18_7 like Mac OS X) AppleWebKit/605.1.15 (KHTML, like Gecko) Mobile/15E148","358","632","240","","null","<div style=""font-size:60px;"">+</div>","null","fixation","","","","","","","","","","","",""
"html-button-response","5","15221","0.0-2.0-1.1","1050","2","pre","1","afternoon","2026-03-31","2026-04-14","2026-03-31T18:07:48.589Z","Mozilla/5.0 (iPhone; CPU iPhone OS 18_7 like Mac OS X) AppleWebKit/605.1.15 (KHTML, like Gecko) Mobile/15E148","358","632","240","","2624","<div class=""prompt"" style=""font-size:24px; margin-bottom:20px;"">Which word describes you more?</div>","0","pairing","2","loser","disgrace","NegNeg","49","83","negative","negative","34","loser","left","true"
"html-keyboard-response","6","16023","0.0-2.0-0.2","1050","2","pre","1","afternoon","2026-03-31","2026-04-14","2026-03-31T18:07:48.589Z","Mozilla/5.0 (iPhone; CPU iPhone OS 18_7 like Mac OS X) AppleWebKit/605.1.15 (KHTML, like Gecko) Mobile/15E148","358","632","240","","null","<div style=""font-size:60px;"">+</div>","null","fixation","","","","","","","","","","","",""
"html-button-response","7","17388","0.0-2.0-1.2","1050","2","pre","1","afternoon","2026-03-31","2026-04-14","2026-03-31T18:07:48.589Z","Mozilla/5.0 (iPhone; CPU iPhone OS 18_7 like Mac OS X) AppleWebKit/605.1.15 (KHTML, like Gecko) Mobile/15E148","358","632","240","","1361","<div class=""prompt"" style=""font-size:24px; margin-bottom:20px;"">Which word describes you more?</div>","1","pairing","3","regretful","adorable","PosNeg","96","84","negative","positive","12","adorable","right","true"
"html-keyboard-response","8","18191","0.0-2.0-0.3","1050","2","pre","1","afternoon","2026-03-31","2026-04-14","2026-03-31T18:07:48.589Z","Mozilla/5.0 (iPhone; CPU iPhone OS 18_7 like Mac OS X) AppleWebKit/605.1.15 (KHTML, like Gecko) Mobile/15E148","358","632","240","","null","<div style=""font-size:60px;"">+</div>","null","fixation","","","","","","","","","","","",""
"html-button-response","9","19386","0.0-2.0-1.3","1050","2","pre","1","afternoon","2026-03-31","2026-04-14","2026-03-31T18:07:48.589Z","Mozilla/5.0 (iPhone; CPU iPhone OS 18_7 like Mac OS X) AppleWebKit/605.1.15 (KHTML, like Gecko) Mobile/15E148","358","632","240","","1193","<div class=""prompt"" style=""font-size:24px; margin-bottom:20px;"">Which word describes you more?</div>","0","pairing","4","knowledgeable","creep","PosNeg","99","28","positive","negative","71","knowledgeable","left","true"
"html-keyboard-response","10","20189","0.0-2.0-0.4","1050","2","pre","1","afternoon","2026-03-31","2026-04-14","2026-03-31T18:07:48.589Z","Mozilla/5.0 (iPhone; CPU iPhone OS 18_7 like Mac OS X) AppleWebKit/605.1.15 (KHTML, like Gecko) Mobile/15E148","358","632","240","","null","<div style=""font-size:60px;"">+</div>","null","fixation","","","","","","","","","","","",""
"html-button-response","11","24522","0.0-2.0-1.4","1050","2","pre","1","afternoon","2026-03-31","2026-04-14","2026-03-31T18:07:48.589Z","Mozilla/5.0 (iPhone; CPU iPhone OS 18_7 like Mac OS X) AppleWebKit/605.1.15 (KHTML, like Gecko) Mobile/15E148","358","632","240","","4330","<div class=""prompt"" style=""font-size:24px; margin-bottom:20px;"">Which word describes you more?</div>","1","pairing","5","alone","sophisticated","PosNeg","13","100","negative","positive","87","sophisticated","right","true"
"html-keyboard-response","12","25325","0.0-2.0-0.5","1050","2","pre","1","afternoon","2026-03-31","2026-04-14","2026-03-31T18:07:48.589Z","Mozilla/5.0 (iPhone; CPU iPhone OS 18_7 like Mac OS X) AppleWebKit/605.1.15 (KHTML, like Gecko) Mobile/15E148","358","632","240","","null","<div style=""font-size:60px;"">+</div>","null","fixation","","","","","","","","","","","",""
"html-button-response","13","26833","0.0-2.0-1.5","1050","2","pre","1","afternoon","2026-03-31","2026-04-14","2026-03-31T18:07:48.589Z","Mozilla/5.0 (iPhone; CPU iPhone OS 18_7 like Mac OS X) AppleWebKit/605.1.15 (KHTML, like Gecko) Mobile/15E148","358","632","240","","1505","<div class=""prompt"" style=""font-size:24px; margin-bottom:20px;"">Which word describes you more?</div>","1","pairing","6","terrible","friend","PosNeg","86","15","negative","positive","71","friend","right","true"
"html-keyboard-response","14","27636","0.0-2.0-0.6","1050","2","pre","1","afternoon","2026-03-31","2026-04-14","2026-03-31T18:07:48.589Z","Mozilla/5.0 (iPhone; CPU iPhone OS 18_7 like Mac OS X) AppleWebKit/605.1.15 (KHTML, like Gecko) Mobile/15E148","358","632","240","","null","<div style=""font-size:60px;"">+</div>","null","fixation","","","","","","","","","","","",""
"html-button-response","15","29149","0.0-2.0-1.6","1050","2","pre","1","afternoon","2026-03-31","2026-04-14","2026-03-31T18:07:48.589Z","Mozilla/5.0 (iPhone; CPU iPhone OS 18_7 like Mac OS X) AppleWebKit/605.1.15 (KHTML, like Gecko) Mobile/15E148","358","632","240","","1510","<div class=""prompt"" style=""font-size:24px; margin-bottom:20px;"">Which word describes you more?</div>","0","pairing","7","reliable","hesitant","PosNeg","75","68","positive","negative","7","reliable","left","true"
"html-keyboard-response","16","29951","0.0-2.0-0.7","1050","2","pre","1","afternoon","2026-03-31","2026-04-14","2026-03-31T18:07:48.589Z","Mozilla/5.0 (iPhone; CPU iPhone OS 18_7 like Mac OS X) AppleWebKit/605.1.15 (KHTML, like Gecko) Mobile/15E148","358","632","240","","null","<div style=""font-size:60px;"">+</div>","null","fixation","","","","","","","","","","","",""
"html-button-response","17","31196","0.0-2.0-1.7","1050","2","pre","1","afternoon","2026-03-31","2026-04-14","2026-03-31T18:07:48.589Z","Mozilla/5.0 (iPhone; CPU iPhone OS 18_7 like Mac OS X) AppleWebKit/605.1.15 (KHTML, like Gecko) Mobile/15E148","358","632","240","","1242","<div class=""prompt"" style=""font-size:24px; margin-bottom:20px;"">Which word describes you more?</div>","0","pairing","8","delight","cooperative","PosPos","89","92","positive","positive","3","delight","left","true"
"html-keyboard-response","18","31999","0.0-2.0-0.8","1050","2","pre","1","afternoon","2026-03-31","2026-04-14","2026-03-31T18:07:48.589Z","Mozilla/5.0 (iPhone; CPU iPhone OS 18_7 like Mac OS X) AppleWebKit/605.1.15 (KHTML, like Gecko) Mobile/15E148","358","632","240","","null","<div style=""font-size:60px;"">+</div>","null","fixation","","","","","","","","","","","",""
"html-button-response","19","33396","0.0-2.0-1.8","1050","2","pre","1","afternoon","2026-03-31","2026-04-14","2026-03-31T18:07:48.589Z","Mozilla/5.0 (iPhone; CPU iPhone OS 18_7 like Mac OS X) AppleWebKit/605.1.15 (KHTML, like Gecko) Mobile/15E148","358","632","240","","1396","<div class=""prompt"" style=""font-size:24px; margin-bottom:20px;"">Which word describes you more?</div>","0","pairing","9","excited","friend","PosPos","87","15","positive","positive","72","excited","left","true"
"html-keyboard-response","20","34199","0.0-2.0-0.9","1050","2","pre","1","afternoon","2026-03-31","2026-04-14","2026-03-31T18:07:48.589Z","Mozilla/5.0 (iPhone; CPU iPhone OS 18_7 like Mac OS X) AppleWebKit/605.1.15 (KHTML, like Gecko) Mobile/15E148","358","632","240","","null","<div style=""font-size:60px;"">+</div>","null","fixation","","","","","","","","","","","",""
"html-button-response","21","35713","0.0-2.0-1.9","1050","2","pre","1","afternoon","2026-03-31","2026-04-14","2026-03-31T18:07:48.589Z","Mozilla/5.0 (iPhone; CPU iPhone OS 18_7 like Mac OS X) AppleWebKit/605.1.15 (KHTML, like Gecko) Mobile/15E148","358","632","240","","1511","<div class=""prompt"" style=""font-size:24px; margin-bottom:20px;"">Which word describes you more?</div>","1","pairing","10","fun","seeker","PosPos","75","29","positive","positive","46","seeker","right","true"
"html-keyboard-response","22","36515","0.0-2.0-0.10","1050","2","pre","1","afternoon","2026-03-31","2026-04-14","2026-03-31T18:07:48.589Z","Mozilla/5.0 (iPhone; CPU iPhone OS 18_7 like Mac OS X) AppleWebKit/605.1.15 (KHTML, like Gecko) Mobile/15E148","358","632","240","","null","<div style=""font-size:60px;"">+</div>","null","fixation","","","","","","","","","","","",""
"html-button-response","23","37979","0.0-2.0-1.10","1050","2","pre","1","afternoon","2026-03-31","2026-04-14","2026-03-31T18:07:48.589Z","Mozilla/5.0 (iPhone; CPU iPhone OS 18_7 like Mac OS X) AppleWebKit/605.1.15 (KHTML, like Gecko) Mobile/15E148","358","632","240","","1463","<div class=""prompt"" style=""font-size:24px; margin-bottom:20px;"">Which word describes you more?</div>","0","pairing","11","alone","disgrace","NegNeg","13","83","negative","negative","70","alone","left","true"
"html-keyboard-response","24","38782","0.0-2.0-0.11","1050","2","pre","1","afternoon","2026-03-31","2026-04-14","2026-03-31T18:07:48.589Z","Mozilla/5.0 (iPhone; CPU iPhone OS 18_7 like Mac OS X) AppleWebKit/605.1.15 (KHTML, like Gecko) Mobile/15E148","358","632","240","","null","<div style=""font-size:60px;"">+</div>","null","fixation","","","","","","","","","","","",""
"html-button-response","25","40645","0.0-2.0-1.11","1050","2","pre","1","afternoon","2026-03-31","2026-04-14","2026-03-31T18:07:48.589Z","Mozilla/5.0 (iPhone; CPU iPhone OS 18_7 like Mac OS X) AppleWebKit/605.1.15 (KHTML, like Gecko) Mobile/15E148","358","632","240","","1860","<div class=""prompt"" style=""font-size:24px; margin-bottom:20px;"">Which word describes you more?</div>","0","pairing","12","credible","healthy","PosPos","93","65","positive","positive","28","credible","left","true"
"html-keyboard-response","26","41448","0.0-2.0-0.12","1050","2","pre","1","afternoon","2026-03-31","2026-04-14","2026-03-31T18:07:48.589Z","Mozilla/5.0 (iPhone; CPU iPhone OS 18_7 like Mac OS X) AppleWebKit/605.1.15 (KHTML, like Gecko) Mobile/15E148","358","632","240","","null","<div style=""font-size:60px;"">+</div>","null","fixation","","","","","","","","","","","",""
"html-button-response","27","46452","0.0-2.0-1.12","1050","2","pre","1","afternoon","2026-03-31","2026-04-14","2026-03-31T18:07:48.589Z","Mozilla/5.0 (iPhone; CPU iPhone OS 18_7 like Mac OS X) AppleWebKit/605.1.15 (KHTML, like Gecko) Mobile/15E148","358","632","240","","null","<div class=""prompt"" style=""font-size:24px; margin-bottom:20px;"">Which word describes you more?</div>","null","pairing","13","awful","unforgivable","NegNeg","79","93","negative","negative","14","null","null","false"
"html-keyboard-response","28","47255","0.0-2.0-0.13","1050","2","pre","1","afternoon","2026-03-31","2026-04-14","2026-03-31T18:07:48.589Z","Mozilla/5.0 (iPhone; CPU iPhone OS 18_7 like Mac OS X) AppleWebKit/605.1.15 (KHTML, like Gecko) Mobile/15E148","358","632","240","","null","<div style=""font-size:60px;"">+</div>","null","fixation","","","","","","","","","","","",""
"html-button-response","29","49126","0.0-2.0-1.13","1050","2","pre","1","afternoon","2026-03-31","2026-04-14","2026-03-31T18:07:48.589Z","Mozilla/5.0 (iPhone; CPU iPhone OS 18_7 like Mac OS X) AppleWebKit/605.1.15 (KHTML, like Gecko) Mobile/15E148","358","632","240","","1869","<div class=""prompt"" style=""font-size:24px; margin-bottom:20px;"">Which word describes you more?</div>","1","pairing","14","degenerate","smiley","PosNeg","75","39","negative","positive","36","smiley","right","true"
"html-keyboard-response","30","49929","0.0-2.0-0.14","1050","2","pre","1","afternoon","2026-03-31","2026-04-14","2026-03-31T18:07:48.589Z","Mozilla/5.0 (iPhone; CPU iPhone OS 18_7 like Mac OS X) AppleWebKit/605.1.15 (KHTML, like Gecko) Mobile/15E148","358","632","240","","null","<div style=""font-size:60px;"">+</div>","null","fixation","","","","","","","","","","","",""
"html-button-response","31","51142","0.0-2.0-1.14","1050","2","pre","1","afternoon","2026-03-31","2026-04-14","2026-03-31T18:07:48.589Z","Mozilla/5.0 (iPhone; CPU iPhone OS 18_7 like Mac OS X) AppleWebKit/605.1.15 (KHTML, like Gecko) Mobile/15E148","358","632","240","","1211","<div class=""prompt"" style=""font-size:24px; margin-bottom:20px;"">Which word describes you more?</div>","1","pairing","15","companion","idealistic","PosPos","23","78","positive","positive","55","idealistic","right","true"
"html-keyboard-response","32","51945","0.0-2.0-0.15","1050","2","pre","1","afternoon","2026-03-31","2026-04-14","2026-03-31T18:07:48.589Z","Mozilla/5.0 (iPhone; CPU iPhone OS 18_7 like Mac OS X) AppleWebKit/605.1.15 (KHTML, like Gecko) Mobile/15E148","358","632","240","","null","<div style=""font-size:60px;"">+</div>","null","fixation","","","","","","","","","","","",""
"html-button-response","33","52940","0.0-2.0-1.15","1050","2","pre","1","afternoon","2026-03-31","2026-04-14","2026-03-31T18:07:48.589Z","Mozilla/5.0 (iPhone; CPU iPhone OS 18_7 like Mac OS X) AppleWebKit/605.1.15 (KHTML, like Gecko) Mobile/15E148","358","632","240","","993","<div class=""prompt"" style=""font-size:24px; margin-bottom:20px;"">Which word describes you more?</div>","0","pairing","16","friend","goodwilled","PosPos","15","82","positive","positive","67","friend","left","true"
"html-keyboard-response","34","53743","0.0-2.0-0.16","1050","2","pre","1","afternoon","2026-03-31","2026-04-14","2026-03-31T18:07:48.589Z","Mozilla/5.0 (iPhone; CPU iPhone OS 18_7 like Mac OS X) AppleWebKit/605.1.15 (KHTML, like Gecko) Mobile/15E148","358","632","240","","null","<div style=""font-size:60px;"">+</div>","null","fixation","","","","","","","","","","","",""
"html-button-response","35","56239","0.0-2.0-1.16","1050","2","pre","1","afternoon","2026-03-31","2026-04-14","2026-03-31T18:07:48.589Z","Mozilla/5.0 (iPhone; CPU iPhone OS 18_7 like Mac OS X) AppleWebKit/605.1.15 (KHTML, like Gecko) Mobile/15E148","358","632","240","","2494","<div class=""prompt"" style=""font-size:24px; margin-bottom:20px;"">Which word describes you more?</div>","0","pairing","17","wise","unlucky","PosNeg","100","60","positive","negative","40","wise","left","true"
"html-keyboard-response","36","57042","0.0-2.0-0.17","1050","2","pre","1","afternoon","2026-03-31","2026-04-14","2026-03-31T18:07:48.589Z","Mozilla/5.0 (iPhone; CPU iPhone OS 18_7 like Mac OS X) AppleWebKit/605.1.15 (KHTML, like Gecko) Mobile/15E148","358","632","240","","null","<div style=""font-size:60px;"">+</div>","null","fixation","","","","","","","","","","","",""
"html-button-response","37","58205","0.0-2.0-1.17","1050","2","pre","1","afternoon","2026-03-31","2026-04-14","2026-03-31T18:07:48.589Z","Mozilla/5.0 (iPhone; CPU iPhone OS 18_7 like Mac OS X) AppleWebKit/605.1.15 (KHTML, like Gecko) Mobile/15E148","358","632","240","","1156","<div class=""prompt"" style=""font-size:24px; margin-bottom:20px;"">Which word describes you more?</div>","1","pairing","18","regretful","creep","NegNeg","96","28","negative","negative","68","creep","right","true"
"html-keyboard-response","38","59009","0.0-2.0-0.18","1050","2","pre","1","afternoon","2026-03-31","2026-04-14","2026-03-31T18:07:48.589Z","Mozilla/5.0 (iPhone; CPU iPhone OS 18_7 like Mac OS X) AppleWebKit/605.1.15 (KHTML, like Gecko) Mobile/15E148","358","632","240","","null","<div style=""font-size:60px;"">+</div>","null","fixation","","","","","","","","","","","",""
"html-button-response","39","61720","0.0-2.0-1.18","1050","2","pre","1","afternoon","2026-03-31","2026-04-14","2026-03-31T18:07:48.589Z","Mozilla/5.0 (iPhone; CPU iPhone OS 18_7 like Mac OS X) AppleWebKit/605.1.15 (KHTML, like Gecko) Mobile/15E148","358","632","240","","2709","<div class=""prompt"" style=""font-size:24px; margin-bottom:20px;"">Which word describes you more?</div>","1","pairing","19","unlucky","alone","NegNeg","60","13","negative","negative","47","alone","right","true"
"html-keyboard-response","40","62522","0.0-2.0-0.19","1050","2","pre","1","afternoon","2026-03-31","2026-04-14","2026-03-31T18:07:48.589Z","Mozilla/5.0 (iPhone; CPU iPhone OS 18_7 like Mac OS X) AppleWebKit/605.1.15 (KHTML, like Gecko) Mobile/15E148","358","632","240","","null","<div style=""font-size:60px;"">+</div>","null","fixation","","","","","","","","","","","",""
"html-button-response","41","63805","0.0-2.0-1.19","1050","2","pre","1","afternoon","2026-03-31","2026-04-14","2026-03-31T18:07:48.589Z","Mozilla/5.0 (iPhone; CPU iPhone OS 18_7 like Mac OS X) AppleWebKit/605.1.15 (KHTML, like Gecko) Mobile/15E148","358","632","240","","1280","<div class=""prompt"" style=""font-size:24px; margin-bottom:20px;"">Which word describes you more?</div>","1","pairing","20","creep","champion","PosNeg","28","65","negative","positive","37","champion","right","true"
"html-keyboard-response","42","64607","0.0-2.0-0.20","1050","2","pre","1","afternoon","2026-03-31","2026-04-14","2026-03-31T18:07:48.589Z","Mozilla/5.0 (iPhone; CPU iPhone OS 18_7 like Mac OS X) AppleWebKit/605.1.15 (KHTML, like Gecko) Mobile/15E148","358","632","240","","null","<div style=""font-size:60px;"">+</div>","null","fixation","","","","","","","","","","","",""
"html-button-response","43","65869","0.0-2.0-1.20","1050","2","pre","1","afternoon","2026-03-31","2026-04-14","2026-03-31T18:07:48.589Z","Mozilla/5.0 (iPhone; CPU iPhone OS 18_7 like Mac OS X) AppleWebKit/605.1.15 (KHTML, like Gecko) Mobile/15E148","358","632","240","","1259","<div class=""prompt"" style=""font-size:24px; margin-bottom:20px;"">Which word describes you more?</div>","0","pairing","21","immoral","hateful","NegNeg","90","86","negative","negative","4","immoral","left","true"
"html-keyboard-response","44","66671","0.0-2.0-0.21","1050","2","pre","1","afternoon","2026-03-31","2026-04-14","2026-03-31T18:07:48.589Z","Mozilla/5.0 (iPhone; CPU iPhone OS 18_7 like Mac OS X) AppleWebKit/605.1.15 (KHTML, like Gecko) Mobile/15E148","358","632","240","","null","<div style=""font-size:60px;"">+</div>","null","fixation","","","","","","","","","","","",""
"html-button-response","45","68235","0.0-2.0-1.21","1050","2","pre","1","afternoon","2026-03-31","2026-04-14","2026-03-31T18:07:48.589Z","Mozilla/5.0 (iPhone; CPU iPhone OS 18_7 like Mac OS X) AppleWebKit/605.1.15 (KHTML, like Gecko) Mobile/15E148","358","632","240","","1562","<div class=""prompt"" style=""font-size:24px; margin-bottom:20px;"">Which word describes you more?</div>","0","pairing","22","awkward","unique","PosNeg","87","97","negative","positive","10","awkward","left","true"
"html-keyboard-response","46","69038","0.0-2.0-0.22","1050","2","pre","1","afternoon","2026-03-31","2026-04-14","2026-03-31T18:07:48.589Z","Mozilla/5.0 (iPhone; CPU iPhone OS 18_7 like Mac OS X) AppleWebKit/605.1.15 (KHTML, like Gecko) Mobile/15E148","358","632","240","","null","<div style=""font-size:60px;"">+</div>","null","fixation","","","","","","","","","","","",""
"html-button-response","47","70485","0.0-2.0-1.22","1050","2","pre","1","afternoon","2026-03-31","2026-04-14","2026-03-31T18:07:48.589Z","Mozilla/5.0 (iPhone; CPU iPhone OS 18_7 like Mac OS X) AppleWebKit/605.1.15 (KHTML, like Gecko) Mobile/15E148","358","632","240","","1444","<div class=""prompt"" style=""font-size:24px; margin-bottom:20px;"">Which word describes you more?</div>","0","pairing","23","companion","irritating","PosNeg","23","91","positive","negative","68","companion","left","true"
"html-keyboard-response","48","71287","0.0-2.0-0.23","1050","2","pre","1","afternoon","2026-03-31","2026-04-14","2026-03-31T18:07:48.589Z","Mozilla/5.0 (iPhone; CPU iPhone OS 18_7 like Mac OS X) AppleWebKit/605.1.15 (KHTML, like Gecko) Mobile/15E148","358","632","240","","null","<div style=""font-size:60px;"">+</div>","null","fixation","","","","","","","","","","","",""
"html-button-response","49","73166","0.0-2.0-1.23","1050","2","pre","1","afternoon","2026-03-31","2026-04-14","2026-03-31T18:07:48.589Z","Mozilla/5.0 (iPhone; CPU iPhone OS 18_7 like Mac OS X) AppleWebKit/605.1.15 (KHTML, like Gecko) Mobile/15E148","358","632","240","","1877","<div class=""prompt"" style=""font-size:24px; margin-bottom:20px;"">Which word describes you more?</div>","0","pairing","24","companion","outcast","PosNeg","23","54","positive","negative","31","companion","left","true"
"instructions","50","74532","0.0-3.0","1050","2","pre","1","afternoon","2026-03-31","2026-04-14","2026-03-31T18:07:48.589Z","Mozilla/5.0 (iPhone; CPU iPhone OS 18_7 like Mac OS X) AppleWebKit/605.1.15 (KHTML, like Gecko) Mobile/15E148","358","632","240","[{""page_index"":0,""viewing_time"":1361}]","1362","","","","","","","","","","","","","","",""
