"trial_type","trial_index","time_elapsed","internal_node_id","PUNS_ID","session_number","session_phase","session_day","session_slot","ema_start_date","ema_post_start_date","experiment_start","browser","screen_width","screen_height","timezone_offset","view_history","rt","stimulus","response","which_experiment_phase","trial_number","left_word","right_word","valence","left_base_rating","right_base_rating","left_valence","right_valence","abs_diff","participant_response","chosen_side","valid_response"
"pavlovia","0","2028","0.0-0.0","1027","2","pre","1","afternoon","2026-03-22","2026-04-03","2026-03-22T23:33:14.447Z","Mozilla/5.0 (iPhone; CPU iPhone OS 18_6_2 like Mac OS X) AppleWebKit/605.1.15 (KHTML, like Gecko) Mobile/15E148","398","708","420","","","","","","","","","","","","","","","","",""
"instructions","1","11515","0.0-1.0","1027","2","pre","1","afternoon","2026-03-22","2026-04-03","2026-03-22T23:33:14.447Z","Mozilla/5.0 (iPhone; CPU iPhone OS 18_6_2 like Mac OS X) AppleWebKit/605.1.15 (KHTML, like Gecko) Mobile/15E148","398","708","420","[{""page_index"":0,""viewing_time"":1357},{""page_index"":1,""viewing_time"":2495},{""page_index"":2,""viewing_time"":4635},{""page_index"":3,""viewing_time"":994}]","9482","","","","","","","","","","","","","","",""
"html-keyboard-response","2","12320","0.0-2.0-0.0","1027","2","pre","1","afternoon","2026-03-22","2026-04-03","2026-03-22T23:33:14.447Z","Mozilla/5.0 (iPhone; CPU iPhone OS 18_6_2 like Mac OS X) AppleWebKit/605.1.15 (KHTML, like Gecko) Mobile/15E148","398","708","420","","null","<div style=""font-size:60px;"">+</div>","null","fixation","","","","","","","","","","","",""
"html-button-response","3","14416","0.0-2.0-1.0","1027","2","pre","1","afternoon","2026-03-22","2026-04-03","2026-03-22T23:33:14.447Z","Mozilla/5.0 (iPhone; CPU iPhone OS 18_6_2 like Mac OS X) AppleWebKit/605.1.15 (KHTML, like Gecko) Mobile/15E148","398","708","420","","2090","<div class=""prompt"" style=""font-size:24px; margin-bottom:20px;"">Which word describes you more?</div>","1","pairing","1","distressed","sadistic","NegNeg","48","12","negative","negative","36","sadistic","right","true"
"html-keyboard-response","4","15218","0.0-2.0-0.1","1027","2","pre","1","afternoon","2026-03-22","2026-04-03","2026-03-22T23:33:14.447Z","Mozilla/5.0 (iPhone; CPU iPhone OS 18_6_2 like Mac OS X) AppleWebKit/605.1.15 (KHTML, like Gecko) Mobile/15E148","398","708","420","","null","<div style=""font-size:60px;"">+</div>","null","fixation","","","","","","","","","","","",""
"html-button-response","5","16814","0.0-2.0-1.1","1027","2","pre","1","afternoon","2026-03-22","2026-04-03","2026-03-22T23:33:14.447Z","Mozilla/5.0 (iPhone; CPU iPhone OS 18_6_2 like Mac OS X) AppleWebKit/605.1.15 (KHTML, like Gecko) Mobile/15E148","398","708","420","","1592","<div class=""prompt"" style=""font-size:24px; margin-bottom:20px;"">Which word describes you more?</div>","1","pairing","2","malicious","carefree","PosNeg","0","26","negative","positive","26","carefree","right","true"
"html-keyboard-response","6","17617","0.0-2.0-0.2","1027","2","pre","1","afternoon","2026-03-22","2026-04-03","2026-03-22T23:33:14.447Z","Mozilla/5.0 (iPhone; CPU iPhone OS 18_6_2 like Mac OS X) AppleWebKit/605.1.15 (KHTML, like Gecko) Mobile/15E148","398","708","420","","null","<div style=""font-size:60px;"">+</div>","null","fixation","","","","","","","","","","","",""
"html-button-response","7","20599","0.0-2.0-1.2","1027","2","pre","1","afternoon","2026-03-22","2026-04-03","2026-03-22T23:33:14.447Z","Mozilla/5.0 (iPhone; CPU iPhone OS 18_6_2 like Mac OS X) AppleWebKit/605.1.15 (KHTML, like Gecko) Mobile/15E148","398","708","420","","2980","<div class=""prompt"" style=""font-size:24px; margin-bottom:20px;"">Which word describes you more?</div>","1","pairing","3","spectacular","anxious","PosNeg","10","55","positive","negative","45","anxious","right","true"
"html-keyboard-response","8","21402","0.0-2.0-0.3","1027","2","pre","1","afternoon","2026-03-22","2026-04-03","2026-03-22T23:33:14.447Z","Mozilla/5.0 (iPhone; CPU iPhone OS 18_6_2 like Mac OS X) AppleWebKit/605.1.15 (KHTML, like Gecko) Mobile/15E148","398","708","420","","null","<div style=""font-size:60px;"">+</div>","null","fixation","","","","","","","","","","","",""
"html-button-response","9","23932","0.0-2.0-1.3","1027","2","pre","1","afternoon","2026-03-22","2026-04-03","2026-03-22T23:33:14.447Z","Mozilla/5.0 (iPhone; CPU iPhone OS 18_6_2 like Mac OS X) AppleWebKit/605.1.15 (KHTML, like Gecko) Mobile/15E148","398","708","420","","2528","<div class=""prompt"" style=""font-size:24px; margin-bottom:20px;"">Which word describes you more?</div>","1","pairing","4","bitter","gloomy","NegNeg","11","10","negative","negative","1","gloomy","right","true"
"html-keyboard-response","10","24734","0.0-2.0-0.4","1027","2","pre","1","afternoon","2026-03-22","2026-04-03","2026-03-22T23:33:14.447Z","Mozilla/5.0 (iPhone; CPU iPhone OS 18_6_2 like Mac OS X) AppleWebKit/605.1.15 (KHTML, like Gecko) Mobile/15E148","398","708","420","","null","<div style=""font-size:60px;"">+</div>","null","fixation","","","","","","","","","","","",""
"html-button-response","11","26991","0.0-2.0-1.4","1027","2","pre","1","afternoon","2026-03-22","2026-04-03","2026-03-22T23:33:14.447Z","Mozilla/5.0 (iPhone; CPU iPhone OS 18_6_2 like Mac OS X) AppleWebKit/605.1.15 (KHTML, like Gecko) Mobile/15E148","398","708","420","","2255","<div class=""prompt"" style=""font-size:24px; margin-bottom:20px;"">Which word describes you more?</div>","0","pairing","5","resourceful","awful","PosNeg","96","0","positive","negative","96","resourceful","left","true"
"html-keyboard-response","12","27795","0.0-2.0-0.5","1027","2","pre","1","afternoon","2026-03-22","2026-04-03","2026-03-22T23:33:14.447Z","Mozilla/5.0 (iPhone; CPU iPhone OS 18_6_2 like Mac OS X) AppleWebKit/605.1.15 (KHTML, like Gecko) Mobile/15E148","398","708","420","","null","<div style=""font-size:60px;"">+</div>","null","fixation","","","","","","","","","","","",""
"html-button-response","13","29335","0.0-2.0-1.5","1027","2","pre","1","afternoon","2026-03-22","2026-04-03","2026-03-22T23:33:14.447Z","Mozilla/5.0 (iPhone; CPU iPhone OS 18_6_2 like Mac OS X) AppleWebKit/605.1.15 (KHTML, like Gecko) Mobile/15E148","398","708","420","","1538","<div class=""prompt"" style=""font-size:24px; margin-bottom:20px;"">Which word describes you more?</div>","0","pairing","6","helper","hesitant","PosNeg","86","51","positive","negative","35","helper","left","true"
"html-keyboard-response","14","30138","0.0-2.0-0.6","1027","2","pre","1","afternoon","2026-03-22","2026-04-03","2026-03-22T23:33:14.447Z","Mozilla/5.0 (iPhone; CPU iPhone OS 18_6_2 like Mac OS X) AppleWebKit/605.1.15 (KHTML, like Gecko) Mobile/15E148","398","708","420","","null","<div style=""font-size:60px;"">+</div>","null","fixation","","","","","","","","","","","",""
"html-button-response","15","31333","0.0-2.0-1.6","1027","2","pre","1","afternoon","2026-03-22","2026-04-03","2026-03-22T23:33:14.447Z","Mozilla/5.0 (iPhone; CPU iPhone OS 18_6_2 like Mac OS X) AppleWebKit/605.1.15 (KHTML, like Gecko) Mobile/15E148","398","708","420","","1193","<div class=""prompt"" style=""font-size:24px; margin-bottom:20px;"">Which word describes you more?</div>","1","pairing","7","terrible","satisfied","PosNeg","0","41","negative","positive","41","satisfied","right","true"
"html-keyboard-response","16","32135","0.0-2.0-0.7","1027","2","pre","1","afternoon","2026-03-22","2026-04-03","2026-03-22T23:33:14.447Z","Mozilla/5.0 (iPhone; CPU iPhone OS 18_6_2 like Mac OS X) AppleWebKit/605.1.15 (KHTML, like Gecko) Mobile/15E148","398","708","420","","null","<div style=""font-size:60px;"">+</div>","null","fixation","","","","","","","","","","","",""
"html-button-response","17","33643","0.0-2.0-1.7","1027","2","pre","1","afternoon","2026-03-22","2026-04-03","2026-03-22T23:33:14.447Z","Mozilla/5.0 (iPhone; CPU iPhone OS 18_6_2 like Mac OS X) AppleWebKit/605.1.15 (KHTML, like Gecko) Mobile/15E148","398","708","420","","1505","<div class=""prompt"" style=""font-size:24px; margin-bottom:20px;"">Which word describes you more?</div>","0","pairing","8","graceful","shameful","PosNeg","63","4","positive","negative","59","graceful","left","true"
"html-keyboard-response","18","34445","0.0-2.0-0.8","1027","2","pre","1","afternoon","2026-03-22","2026-04-03","2026-03-22T23:33:14.447Z","Mozilla/5.0 (iPhone; CPU iPhone OS 18_6_2 like Mac OS X) AppleWebKit/605.1.15 (KHTML, like Gecko) Mobile/15E148","398","708","420","","null","<div style=""font-size:60px;"">+</div>","null","fixation","","","","","","","","","","","",""
"html-button-response","19","36218","0.0-2.0-1.8","1027","2","pre","1","afternoon","2026-03-22","2026-04-03","2026-03-22T23:33:14.447Z","Mozilla/5.0 (iPhone; CPU iPhone OS 18_6_2 like Mac OS X) AppleWebKit/605.1.15 (KHTML, like Gecko) Mobile/15E148","398","708","420","","1771","<div class=""prompt"" style=""font-size:24px; margin-bottom:20px;"">Which word describes you more?</div>","1","pairing","9","creep","unpleasant","NegNeg","0","0","negative","negative","0","unpleasant","right","true"
"html-keyboard-response","20","37021","0.0-2.0-0.9","1027","2","pre","1","afternoon","2026-03-22","2026-04-03","2026-03-22T23:33:14.447Z","Mozilla/5.0 (iPhone; CPU iPhone OS 18_6_2 like Mac OS X) AppleWebKit/605.1.15 (KHTML, like Gecko) Mobile/15E148","398","708","420","","null","<div style=""font-size:60px;"">+</div>","null","fixation","","","","","","","","","","","",""
"html-button-response","21","40390","0.0-2.0-1.9","1027","2","pre","1","afternoon","2026-03-22","2026-04-03","2026-03-22T23:33:14.447Z","Mozilla/5.0 (iPhone; CPU iPhone OS 18_6_2 like Mac OS X) AppleWebKit/605.1.15 (KHTML, like Gecko) Mobile/15E148","398","708","420","","3366","<div class=""prompt"" style=""font-size:24px; margin-bottom:20px;"">Which word describes you more?</div>","1","pairing","10","flawless","devoted","PosPos","0","96","positive","positive","96","devoted","right","true"
"html-keyboard-response","22","41192","0.0-2.0-0.10","1027","2","pre","1","afternoon","2026-03-22","2026-04-03","2026-03-22T23:33:14.447Z","Mozilla/5.0 (iPhone; CPU iPhone OS 18_6_2 like Mac OS X) AppleWebKit/605.1.15 (KHTML, like Gecko) Mobile/15E148","398","708","420","","null","<div style=""font-size:60px;"">+</div>","null","fixation","","","","","","","","","","","",""
"html-button-response","23","42816","0.0-2.0-1.10","1027","2","pre","1","afternoon","2026-03-22","2026-04-03","2026-03-22T23:33:14.447Z","Mozilla/5.0 (iPhone; CPU iPhone OS 18_6_2 like Mac OS X) AppleWebKit/605.1.15 (KHTML, like Gecko) Mobile/15E148","398","708","420","","1622","<div class=""prompt"" style=""font-size:24px; margin-bottom:20px;"">Which word describes you more?</div>","0","pairing","11","companion","asset","PosPos","80","79","positive","positive","1","companion","left","true"
"html-keyboard-response","24","43619","0.0-2.0-0.11","1027","2","pre","1","afternoon","2026-03-22","2026-04-03","2026-03-22T23:33:14.447Z","Mozilla/5.0 (iPhone; CPU iPhone OS 18_6_2 like Mac OS X) AppleWebKit/605.1.15 (KHTML, like Gecko) Mobile/15E148","398","708","420","","null","<div style=""font-size:60px;"">+</div>","null","fixation","","","","","","","","","","","",""
"html-button-response","25","47266","0.0-2.0-1.11","1027","2","pre","1","afternoon","2026-03-22","2026-04-03","2026-03-22T23:33:14.447Z","Mozilla/5.0 (iPhone; CPU iPhone OS 18_6_2 like Mac OS X) AppleWebKit/605.1.15 (KHTML, like Gecko) Mobile/15E148","398","708","420","","3644","<div class=""prompt"" style=""font-size:24px; margin-bottom:20px;"">Which word describes you more?</div>","1","pairing","12","distressed","carefree","PosNeg","48","26","negative","positive","22","carefree","right","true"
"html-keyboard-response","26","48068","0.0-2.0-0.12","1027","2","pre","1","afternoon","2026-03-22","2026-04-03","2026-03-22T23:33:14.447Z","Mozilla/5.0 (iPhone; CPU iPhone OS 18_6_2 like Mac OS X) AppleWebKit/605.1.15 (KHTML, like Gecko) Mobile/15E148","398","708","420","","null","<div style=""font-size:60px;"">+</div>","null","fixation","","","","","","","","","","","",""
"html-button-response","27","50559","0.0-2.0-1.12","1027","2","pre","1","afternoon","2026-03-22","2026-04-03","2026-03-22T23:33:14.447Z","Mozilla/5.0 (iPhone; CPU iPhone OS 18_6_2 like Mac OS X) AppleWebKit/605.1.15 (KHTML, like Gecko) Mobile/15E148","398","708","420","","2489","<div class=""prompt"" style=""font-size:24px; margin-bottom:20px;"">Which word describes you more?</div>","1","pairing","13","appealing","carefree","PosPos","79","26","positive","positive","53","carefree","right","true"
"html-keyboard-response","28","51362","0.0-2.0-0.13","1027","2","pre","1","afternoon","2026-03-22","2026-04-03","2026-03-22T23:33:14.447Z","Mozilla/5.0 (iPhone; CPU iPhone OS 18_6_2 like Mac OS X) AppleWebKit/605.1.15 (KHTML, like Gecko) Mobile/15E148","398","708","420","","null","<div style=""font-size:60px;"">+</div>","null","fixation","","","","","","","","","","","",""
"html-button-response","29","55072","0.0-2.0-1.13","1027","2","pre","1","afternoon","2026-03-22","2026-04-03","2026-03-22T23:33:14.447Z","Mozilla/5.0 (iPhone; CPU iPhone OS 18_6_2 like Mac OS X) AppleWebKit/605.1.15 (KHTML, like Gecko) Mobile/15E148","398","708","420","","3708","<div class=""prompt"" style=""font-size:24px; margin-bottom:20px;"">Which word describes you more?</div>","0","pairing","14","proficient","spectacular","PosPos","89","10","positive","positive","79","proficient","left","true"
"html-keyboard-response","30","55875","0.0-2.0-0.14","1027","2","pre","1","afternoon","2026-03-22","2026-04-03","2026-03-22T23:33:14.447Z","Mozilla/5.0 (iPhone; CPU iPhone OS 18_6_2 like Mac OS X) AppleWebKit/605.1.15 (KHTML, like Gecko) Mobile/15E148","398","708","420","","null","<div style=""font-size:60px;"">+</div>","null","fixation","","","","","","","","","","","",""
"html-button-response","31","59211","0.0-2.0-1.14","1027","2","pre","1","afternoon","2026-03-22","2026-04-03","2026-03-22T23:33:14.447Z","Mozilla/5.0 (iPhone; CPU iPhone OS 18_6_2 like Mac OS X) AppleWebKit/605.1.15 (KHTML, like Gecko) Mobile/15E148","398","708","420","","3333","<div class=""prompt"" style=""font-size:24px; margin-bottom:20px;"">Which word describes you more?</div>","0","pairing","15","flawless","parasite","PosNeg","0","1","positive","negative","1","flawless","left","true"
"html-keyboard-response","32","60016","0.0-2.0-0.15","1027","2","pre","1","afternoon","2026-03-22","2026-04-03","2026-03-22T23:33:14.447Z","Mozilla/5.0 (iPhone; CPU iPhone OS 18_6_2 like Mac OS X) AppleWebKit/605.1.15 (KHTML, like Gecko) Mobile/15E148","398","708","420","","null","<div style=""font-size:60px;"">+</div>","null","fixation","","","","","","","","","","","",""
"html-button-response","33","63520","0.0-2.0-1.15","1027","2","pre","1","afternoon","2026-03-22","2026-04-03","2026-03-22T23:33:14.447Z","Mozilla/5.0 (iPhone; CPU iPhone OS 18_6_2 like Mac OS X) AppleWebKit/605.1.15 (KHTML, like Gecko) Mobile/15E148","398","708","420","","3502","<div class=""prompt"" style=""font-size:24px; margin-bottom:20px;"">Which word describes you more?</div>","0","pairing","16","unlucky","legendary","PosNeg","50","12","negative","positive","38","unlucky","left","true"
"html-keyboard-response","34","64323","0.0-2.0-0.16","1027","2","pre","1","afternoon","2026-03-22","2026-04-03","2026-03-22T23:33:14.447Z","Mozilla/5.0 (iPhone; CPU iPhone OS 18_6_2 like Mac OS X) AppleWebKit/605.1.15 (KHTML, like Gecko) Mobile/15E148","398","708","420","","null","<div style=""font-size:60px;"">+</div>","null","fixation","","","","","","","","","","","",""
"html-button-response","35","68774","0.0-2.0-1.16","1027","2","pre","1","afternoon","2026-03-22","2026-04-03","2026-03-22T23:33:14.447Z","Mozilla/5.0 (iPhone; CPU iPhone OS 18_6_2 like Mac OS X) AppleWebKit/605.1.15 (KHTML, like Gecko) Mobile/15E148","398","708","420","","4449","<div class=""prompt"" style=""font-size:24px; margin-bottom:20px;"">Which word describes you more?</div>","0","pairing","17","degenerate","distressed","NegNeg","24","48","negative","negative","24","degenerate","left","true"
"html-keyboard-response","36","69577","0.0-2.0-0.17","1027","2","pre","1","afternoon","2026-03-22","2026-04-03","2026-03-22T23:33:14.447Z","Mozilla/5.0 (iPhone; CPU iPhone OS 18_6_2 like Mac OS X) AppleWebKit/605.1.15 (KHTML, like Gecko) Mobile/15E148","398","708","420","","null","<div style=""font-size:60px;"">+</div>","null","fixation","","","","","","","","","","","",""
"html-button-response","37","74135","0.0-2.0-1.17","1027","2","pre","1","afternoon","2026-03-22","2026-04-03","2026-03-22T23:33:14.447Z","Mozilla/5.0 (iPhone; CPU iPhone OS 18_6_2 like Mac OS X) AppleWebKit/605.1.15 (KHTML, like Gecko) Mobile/15E148","398","708","420","","4555","<div class=""prompt"" style=""font-size:24px; margin-bottom:20px;"">Which word describes you more?</div>","1","pairing","18","entertaining","reliable","PosPos","82","100","positive","positive","18","reliable","right","true"
"html-keyboard-response","38","74937","0.0-2.0-0.18","1027","2","pre","1","afternoon","2026-03-22","2026-04-03","2026-03-22T23:33:14.447Z","Mozilla/5.0 (iPhone; CPU iPhone OS 18_6_2 like Mac OS X) AppleWebKit/605.1.15 (KHTML, like Gecko) Mobile/15E148","398","708","420","","null","<div style=""font-size:60px;"">+</div>","null","fixation","","","","","","","","","","","",""
"html-button-response","39","76341","0.0-2.0-1.18","1027","2","pre","1","afternoon","2026-03-22","2026-04-03","2026-03-22T23:33:14.447Z","Mozilla/5.0 (iPhone; CPU iPhone OS 18_6_2 like Mac OS X) AppleWebKit/605.1.15 (KHTML, like Gecko) Mobile/15E148","398","708","420","","1399","<div class=""prompt"" style=""font-size:24px; margin-bottom:20px;"">Which word describes you more?</div>","1","pairing","19","incompetent","capable","PosNeg","0","93","negative","positive","93","capable","right","true"
"html-keyboard-response","40","77144","0.0-2.0-0.19","1027","2","pre","1","afternoon","2026-03-22","2026-04-03","2026-03-22T23:33:14.447Z","Mozilla/5.0 (iPhone; CPU iPhone OS 18_6_2 like Mac OS X) AppleWebKit/605.1.15 (KHTML, like Gecko) Mobile/15E148","398","708","420","","null","<div style=""font-size:60px;"">+</div>","null","fixation","","","","","","","","","","","",""
"html-button-response","41","78623","0.0-2.0-1.19","1027","2","pre","1","afternoon","2026-03-22","2026-04-03","2026-03-22T23:33:14.447Z","Mozilla/5.0 (iPhone; CPU iPhone OS 18_6_2 like Mac OS X) AppleWebKit/605.1.15 (KHTML, like Gecko) Mobile/15E148","398","708","420","","1477","<div class=""prompt"" style=""font-size:24px; margin-bottom:20px;"">Which word describes you more?</div>","0","pairing","20","dull","quitter","NegNeg","1","3","negative","negative","2","dull","left","true"
"html-keyboard-response","42","79426","0.0-2.0-0.20","1027","2","pre","1","afternoon","2026-03-22","2026-04-03","2026-03-22T23:33:14.447Z","Mozilla/5.0 (iPhone; CPU iPhone OS 18_6_2 like Mac OS X) AppleWebKit/605.1.15 (KHTML, like Gecko) Mobile/15E148","398","708","420","","null","<div style=""font-size:60px;"">+</div>","null","fixation","","","","","","","","","","","",""
"html-button-response","43","81324","0.0-2.0-1.20","1027","2","pre","1","afternoon","2026-03-22","2026-04-03","2026-03-22T23:33:14.447Z","Mozilla/5.0 (iPhone; CPU iPhone OS 18_6_2 like Mac OS X) AppleWebKit/605.1.15 (KHTML, like Gecko) Mobile/15E148","398","708","420","","1895","<div class=""prompt"" style=""font-size:24px; margin-bottom:20px;"">Which word describes you more?</div>","0","pairing","21","graceful","anxious","PosNeg","63","55","positive","negative","8","graceful","left","true"
"html-keyboard-response","44","82126","0.0-2.0-0.21","1027","2","pre","1","afternoon","2026-03-22","2026-04-03","2026-03-22T23:33:14.447Z","Mozilla/5.0 (iPhone; CPU iPhone OS 18_6_2 like Mac OS X) AppleWebKit/605.1.15 (KHTML, like Gecko) Mobile/15E148","398","708","420","","null","<div style=""font-size:60px;"">+</div>","null","fixation","","","","","","","","","","","",""
"html-button-response","45","83282","0.0-2.0-1.21","1027","2","pre","1","afternoon","2026-03-22","2026-04-03","2026-03-22T23:33:14.447Z","Mozilla/5.0 (iPhone; CPU iPhone OS 18_6_2 like Mac OS X) AppleWebKit/605.1.15 (KHTML, like Gecko) Mobile/15E148","398","708","420","","1154","<div class=""prompt"" style=""font-size:24px; margin-bottom:20px;"">Which word describes you more?</div>","1","pairing","22","malicious","cooperative","PosNeg","0","92","negative","positive","92","cooperative","right","true"
"html-keyboard-response","46","84084","0.0-2.0-0.22","1027","2","pre","1","afternoon","2026-03-22","2026-04-03","2026-03-22T23:33:14.447Z","Mozilla/5.0 (iPhone; CPU iPhone OS 18_6_2 like Mac OS X) AppleWebKit/605.1.15 (KHTML, like Gecko) Mobile/15E148","398","708","420","","null","<div style=""font-size:60px;"">+</div>","null","fixation","","","","","","","","","","","",""
"html-button-response","47","86545","0.0-2.0-1.22","1027","2","pre","1","afternoon","2026-03-22","2026-04-03","2026-03-22T23:33:14.447Z","Mozilla/5.0 (iPhone; CPU iPhone OS 18_6_2 like Mac OS X) AppleWebKit/605.1.15 (KHTML, like Gecko) Mobile/15E148","398","708","420","","2459","<div class=""prompt"" style=""font-size:24px; margin-bottom:20px;"">Which word describes you more?</div>","1","pairing","23","parasite","outcast","NegNeg","1","60","negative","negative","59","outcast","right","true"
"html-keyboard-response","48","87348","0.0-2.0-0.23","1027","2","pre","1","afternoon","2026-03-22","2026-04-03","2026-03-22T23:33:14.447Z","Mozilla/5.0 (iPhone; CPU iPhone OS 18_6_2 like Mac OS X) AppleWebKit/605.1.15 (KHTML, like Gecko) Mobile/15E148","398","708","420","","null","<div style=""font-size:60px;"">+</div>","null","fixation","","","","","","","","","","","",""
"html-button-response","49","89367","0.0-2.0-1.23","1027","2","pre","1","afternoon","2026-03-22","2026-04-03","2026-03-22T23:33:14.447Z","Mozilla/5.0 (iPhone; CPU iPhone OS 18_6_2 like Mac OS X) AppleWebKit/605.1.15 (KHTML, like Gecko) Mobile/15E148","398","708","420","","2017","<div class=""prompt"" style=""font-size:24px; margin-bottom:20px;"">Which word describes you more?</div>","1","pairing","24","alluring","authentic","PosPos","46","96","positive","positive","50","authentic","right","true"
"instructions","50","90362","0.0-3.0","1027","2","pre","1","afternoon","2026-03-22","2026-04-03","2026-03-22T23:33:14.447Z","Mozilla/5.0 (iPhone; CPU iPhone OS 18_6_2 like Mac OS X) AppleWebKit/605.1.15 (KHTML, like Gecko) Mobile/15E148","398","708","420","[{""page_index"":0,""viewing_time"":992}]","993","","","","","","","","","","","","","","",""
