"trial_type","trial_index","time_elapsed","internal_node_id","PUNS_ID","session_number","session_phase","session_day","session_slot","ema_start_date","ema_post_start_date","experiment_start","browser","screen_width","screen_height","timezone_offset","view_history","rt","stimulus","response","which_experiment_phase","trial_number","left_word","right_word","valence","left_base_rating","right_base_rating","left_valence","right_valence","abs_diff","participant_response","chosen_side","valid_response"
"pavlovia","0","1456","0.0-0.0","1080","37","post","3","morning","2026-05-20","2026-06-03","2026-06-05T14:55:31.990Z","Mozilla/5.0 (iPhone; CPU iPhone OS 18_5 like Mac OS X) AppleWebKit/605.1.15 (KHTML, like Gecko) Mobile/15E148","343","597","240","","","","","","","","","","","","","","","","",""
"instructions","1","4785","0.0-1.0","1080","37","post","3","morning","2026-05-20","2026-06-03","2026-06-05T14:55:31.990Z","Mozilla/5.0 (iPhone; CPU iPhone OS 18_5 like Mac OS X) AppleWebKit/605.1.15 (KHTML, like Gecko) Mobile/15E148","343","597","240","[{""page_index"":0,""viewing_time"":643},{""page_index"":1,""viewing_time"":474},{""page_index"":2,""viewing_time"":1721},{""page_index"":3,""viewing_time"":481}]","3320","","","","","","","","","","","","","","",""
"html-keyboard-response","2","5591","0.0-2.0-0.0","1080","37","post","3","morning","2026-05-20","2026-06-03","2026-06-05T14:55:31.990Z","Mozilla/5.0 (iPhone; CPU iPhone OS 18_5 like Mac OS X) AppleWebKit/605.1.15 (KHTML, like Gecko) Mobile/15E148","343","597","240","","null","<div style=""font-size:60px;"">+</div>","null","fixation","","","","","","","","","","","",""
"html-button-response","3","6622","0.0-2.0-1.0","1080","37","post","3","morning","2026-05-20","2026-06-03","2026-06-05T14:55:31.990Z","Mozilla/5.0 (iPhone; CPU iPhone OS 18_5 like Mac OS X) AppleWebKit/605.1.15 (KHTML, like Gecko) Mobile/15E148","343","597","240","","1025","<div class=""prompt"" style=""font-size:24px; margin-bottom:20px;"">Which word describes you more?</div>","1","pairing","1","malicious","patient","PosNeg","0","91","negative","positive","91","patient","right","true"
"html-keyboard-response","4","7425","0.0-2.0-0.1","1080","37","post","3","morning","2026-05-20","2026-06-03","2026-06-05T14:55:31.990Z","Mozilla/5.0 (iPhone; CPU iPhone OS 18_5 like Mac OS X) AppleWebKit/605.1.15 (KHTML, like Gecko) Mobile/15E148","343","597","240","","null","<div style=""font-size:60px;"">+</div>","null","fixation","","","","","","","","","","","",""
"html-button-response","5","8238","0.0-2.0-1.1","1080","37","post","3","morning","2026-05-20","2026-06-03","2026-06-05T14:55:31.990Z","Mozilla/5.0 (iPhone; CPU iPhone OS 18_5 like Mac OS X) AppleWebKit/605.1.15 (KHTML, like Gecko) Mobile/15E148","343","597","240","","808","<div class=""prompt"" style=""font-size:24px; margin-bottom:20px;"">Which word describes you more?</div>","1","pairing","2","fool","successful","PosNeg","44","51","negative","positive","7","successful","right","true"
"html-keyboard-response","6","9040","0.0-2.0-0.2","1080","37","post","3","morning","2026-05-20","2026-06-03","2026-06-05T14:55:31.990Z","Mozilla/5.0 (iPhone; CPU iPhone OS 18_5 like Mac OS X) AppleWebKit/605.1.15 (KHTML, like Gecko) Mobile/15E148","343","597","240","","null","<div style=""font-size:60px;"">+</div>","null","fixation","","","","","","","","","","","",""
"html-button-response","7","9873","0.0-2.0-1.2","1080","37","post","3","morning","2026-05-20","2026-06-03","2026-06-05T14:55:31.990Z","Mozilla/5.0 (iPhone; CPU iPhone OS 18_5 like Mac OS X) AppleWebKit/605.1.15 (KHTML, like Gecko) Mobile/15E148","343","597","240","","829","<div class=""prompt"" style=""font-size:24px; margin-bottom:20px;"">Which word describes you more?</div>","0","pairing","3","anxious","unique","PosNeg","78","29","negative","positive","49","anxious","left","true"
"html-keyboard-response","8","10677","0.0-2.0-0.3","1080","37","post","3","morning","2026-05-20","2026-06-03","2026-06-05T14:55:31.990Z","Mozilla/5.0 (iPhone; CPU iPhone OS 18_5 like Mac OS X) AppleWebKit/605.1.15 (KHTML, like Gecko) Mobile/15E148","343","597","240","","null","<div style=""font-size:60px;"">+</div>","null","fixation","","","","","","","","","","","",""
"html-button-response","9","11439","0.0-2.0-1.3","1080","37","post","3","morning","2026-05-20","2026-06-03","2026-06-05T14:55:31.990Z","Mozilla/5.0 (iPhone; CPU iPhone OS 18_5 like Mac OS X) AppleWebKit/605.1.15 (KHTML, like Gecko) Mobile/15E148","343","597","240","","758","<div class=""prompt"" style=""font-size:24px; margin-bottom:20px;"">Which word describes you more?</div>","0","pairing","4","awkward","garbage","NegNeg","74","1","negative","negative","73","awkward","left","true"
"html-keyboard-response","10","12242","0.0-2.0-0.4","1080","37","post","3","morning","2026-05-20","2026-06-03","2026-06-05T14:55:31.990Z","Mozilla/5.0 (iPhone; CPU iPhone OS 18_5 like Mac OS X) AppleWebKit/605.1.15 (KHTML, like Gecko) Mobile/15E148","343","597","240","","null","<div style=""font-size:60px;"">+</div>","null","fixation","","","","","","","","","","","",""
"html-button-response","11","13009","0.0-2.0-1.4","1080","37","post","3","morning","2026-05-20","2026-06-03","2026-06-05T14:55:31.990Z","Mozilla/5.0 (iPhone; CPU iPhone OS 18_5 like Mac OS X) AppleWebKit/605.1.15 (KHTML, like Gecko) Mobile/15E148","343","597","240","","765","<div class=""prompt"" style=""font-size:24px; margin-bottom:20px;"">Which word describes you more?</div>","0","pairing","5","goodwilled","admired","PosPos","95","59","positive","positive","36","goodwilled","left","true"
"html-keyboard-response","12","13813","0.0-2.0-0.5","1080","37","post","3","morning","2026-05-20","2026-06-03","2026-06-05T14:55:31.990Z","Mozilla/5.0 (iPhone; CPU iPhone OS 18_5 like Mac OS X) AppleWebKit/605.1.15 (KHTML, like Gecko) Mobile/15E148","343","597","240","","null","<div style=""font-size:60px;"">+</div>","null","fixation","","","","","","","","","","","",""
"html-button-response","13","14594","0.0-2.0-1.5","1080","37","post","3","morning","2026-05-20","2026-06-03","2026-06-05T14:55:31.990Z","Mozilla/5.0 (iPhone; CPU iPhone OS 18_5 like Mac OS X) AppleWebKit/605.1.15 (KHTML, like Gecko) Mobile/15E148","343","597","240","","779","<div class=""prompt"" style=""font-size:24px; margin-bottom:20px;"">Which word describes you more?</div>","0","pairing","6","hesitant","brave","PosNeg","68","53","negative","positive","15","hesitant","left","true"
"html-keyboard-response","14","15397","0.0-2.0-0.6","1080","37","post","3","morning","2026-05-20","2026-06-03","2026-06-05T14:55:31.990Z","Mozilla/5.0 (iPhone; CPU iPhone OS 18_5 like Mac OS X) AppleWebKit/605.1.15 (KHTML, like Gecko) Mobile/15E148","343","597","240","","null","<div style=""font-size:60px;"">+</div>","null","fixation","","","","","","","","","","","",""
"html-button-response","15","16380","0.0-2.0-1.6","1080","37","post","3","morning","2026-05-20","2026-06-03","2026-06-05T14:55:31.990Z","Mozilla/5.0 (iPhone; CPU iPhone OS 18_5 like Mac OS X) AppleWebKit/605.1.15 (KHTML, like Gecko) Mobile/15E148","343","597","240","","979","<div class=""prompt"" style=""font-size:24px; margin-bottom:20px;"">Which word describes you more?</div>","0","pairing","7","attractive","slob","PosNeg","11","59","positive","negative","48","attractive","left","true"
"html-keyboard-response","16","17183","0.0-2.0-0.7","1080","37","post","3","morning","2026-05-20","2026-06-03","2026-06-05T14:55:31.990Z","Mozilla/5.0 (iPhone; CPU iPhone OS 18_5 like Mac OS X) AppleWebKit/605.1.15 (KHTML, like Gecko) Mobile/15E148","343","597","240","","null","<div style=""font-size:60px;"">+</div>","null","fixation","","","","","","","","","","","",""
"html-button-response","17","18148","0.0-2.0-1.7","1080","37","post","3","morning","2026-05-20","2026-06-03","2026-06-05T14:55:31.990Z","Mozilla/5.0 (iPhone; CPU iPhone OS 18_5 like Mac OS X) AppleWebKit/605.1.15 (KHTML, like Gecko) Mobile/15E148","343","597","240","","961","<div class=""prompt"" style=""font-size:24px; margin-bottom:20px;"">Which word describes you more?</div>","0","pairing","8","insecure","headache","NegNeg","16","14","negative","negative","2","insecure","left","true"
"html-keyboard-response","18","18950","0.0-2.0-0.8","1080","37","post","3","morning","2026-05-20","2026-06-03","2026-06-05T14:55:31.990Z","Mozilla/5.0 (iPhone; CPU iPhone OS 18_5 like Mac OS X) AppleWebKit/605.1.15 (KHTML, like Gecko) Mobile/15E148","343","597","240","","null","<div style=""font-size:60px;"">+</div>","null","fixation","","","","","","","","","","","",""
"html-button-response","19","19833","0.0-2.0-1.8","1080","37","post","3","morning","2026-05-20","2026-06-03","2026-06-05T14:55:31.990Z","Mozilla/5.0 (iPhone; CPU iPhone OS 18_5 like Mac OS X) AppleWebKit/605.1.15 (KHTML, like Gecko) Mobile/15E148","343","597","240","","881","<div class=""prompt"" style=""font-size:24px; margin-bottom:20px;"">Which word describes you more?</div>","1","pairing","9","prick","empty","NegNeg","3","29","negative","negative","26","empty","right","true"
"html-keyboard-response","20","20636","0.0-2.0-0.9","1080","37","post","3","morning","2026-05-20","2026-06-03","2026-06-05T14:55:31.990Z","Mozilla/5.0 (iPhone; CPU iPhone OS 18_5 like Mac OS X) AppleWebKit/605.1.15 (KHTML, like Gecko) Mobile/15E148","343","597","240","","null","<div style=""font-size:60px;"">+</div>","null","fixation","","","","","","","","","","","",""
"html-button-response","21","24119","0.0-2.0-1.9","1080","37","post","3","morning","2026-05-20","2026-06-03","2026-06-05T14:55:31.990Z","Mozilla/5.0 (iPhone; CPU iPhone OS 18_5 like Mac OS X) AppleWebKit/605.1.15 (KHTML, like Gecko) Mobile/15E148","343","597","240","","3481","<div class=""prompt"" style=""font-size:24px; margin-bottom:20px;"">Which word describes you more?</div>","0","pairing","10","expert","repulsive","PosNeg","37","20","positive","negative","17","expert","left","true"
"html-keyboard-response","22","24922","0.0-2.0-0.10","1080","37","post","3","morning","2026-05-20","2026-06-03","2026-06-05T14:55:31.990Z","Mozilla/5.0 (iPhone; CPU iPhone OS 18_5 like Mac OS X) AppleWebKit/605.1.15 (KHTML, like Gecko) Mobile/15E148","343","597","240","","null","<div style=""font-size:60px;"">+</div>","null","fixation","","","","","","","","","","","",""
"html-button-response","23","25789","0.0-2.0-1.10","1080","37","post","3","morning","2026-05-20","2026-06-03","2026-06-05T14:55:31.990Z","Mozilla/5.0 (iPhone; CPU iPhone OS 18_5 like Mac OS X) AppleWebKit/605.1.15 (KHTML, like Gecko) Mobile/15E148","343","597","240","","864","<div class=""prompt"" style=""font-size:24px; margin-bottom:20px;"">Which word describes you more?</div>","1","pairing","11","expert","wise","PosPos","37","54","positive","positive","17","wise","right","true"
"html-keyboard-response","24","26592","0.0-2.0-0.11","1080","37","post","3","morning","2026-05-20","2026-06-03","2026-06-05T14:55:31.990Z","Mozilla/5.0 (iPhone; CPU iPhone OS 18_5 like Mac OS X) AppleWebKit/605.1.15 (KHTML, like Gecko) Mobile/15E148","343","597","240","","null","<div style=""font-size:60px;"">+</div>","null","fixation","","","","","","","","","","","",""
"html-button-response","25","27689","0.0-2.0-1.11","1080","37","post","3","morning","2026-05-20","2026-06-03","2026-06-05T14:55:31.990Z","Mozilla/5.0 (iPhone; CPU iPhone OS 18_5 like Mac OS X) AppleWebKit/605.1.15 (KHTML, like Gecko) Mobile/15E148","343","597","240","","1095","<div class=""prompt"" style=""font-size:24px; margin-bottom:20px;"">Which word describes you more?</div>","1","pairing","12","legendary","spontaneous","PosPos","13","81","positive","positive","68","spontaneous","right","true"
"html-keyboard-response","26","28492","0.0-2.0-0.12","1080","37","post","3","morning","2026-05-20","2026-06-03","2026-06-05T14:55:31.990Z","Mozilla/5.0 (iPhone; CPU iPhone OS 18_5 like Mac OS X) AppleWebKit/605.1.15 (KHTML, like Gecko) Mobile/15E148","343","597","240","","null","<div style=""font-size:60px;"">+</div>","null","fixation","","","","","","","","","","","",""
"html-button-response","27","29290","0.0-2.0-1.12","1080","37","post","3","morning","2026-05-20","2026-06-03","2026-06-05T14:55:31.990Z","Mozilla/5.0 (iPhone; CPU iPhone OS 18_5 like Mac OS X) AppleWebKit/605.1.15 (KHTML, like Gecko) Mobile/15E148","343","597","240","","796","<div class=""prompt"" style=""font-size:24px; margin-bottom:20px;"">Which word describes you more?</div>","0","pairing","13","satisfied","degenerate","PosNeg","58","25","positive","negative","33","satisfied","left","true"
"html-keyboard-response","28","30093","0.0-2.0-0.13","1080","37","post","3","morning","2026-05-20","2026-06-03","2026-06-05T14:55:31.990Z","Mozilla/5.0 (iPhone; CPU iPhone OS 18_5 like Mac OS X) AppleWebKit/605.1.15 (KHTML, like Gecko) Mobile/15E148","343","597","240","","null","<div style=""font-size:60px;"">+</div>","null","fixation","","","","","","","","","","","",""
"html-button-response","29","31075","0.0-2.0-1.13","1080","37","post","3","morning","2026-05-20","2026-06-03","2026-06-05T14:55:31.990Z","Mozilla/5.0 (iPhone; CPU iPhone OS 18_5 like Mac OS X) AppleWebKit/605.1.15 (KHTML, like Gecko) Mobile/15E148","343","597","240","","979","<div class=""prompt"" style=""font-size:24px; margin-bottom:20px;"">Which word describes you more?</div>","0","pairing","14","charming","asset","PosPos","49","36","positive","positive","13","charming","left","true"
"html-keyboard-response","30","31878","0.0-2.0-0.14","1080","37","post","3","morning","2026-05-20","2026-06-03","2026-06-05T14:55:31.990Z","Mozilla/5.0 (iPhone; CPU iPhone OS 18_5 like Mac OS X) AppleWebKit/605.1.15 (KHTML, like Gecko) Mobile/15E148","343","597","240","","null","<div style=""font-size:60px;"">+</div>","null","fixation","","","","","","","","","","","",""
"html-button-response","31","33509","0.0-2.0-1.14","1080","37","post","3","morning","2026-05-20","2026-06-03","2026-06-05T14:55:31.990Z","Mozilla/5.0 (iPhone; CPU iPhone OS 18_5 like Mac OS X) AppleWebKit/605.1.15 (KHTML, like Gecko) Mobile/15E148","343","597","240","","1624","<div class=""prompt"" style=""font-size:24px; margin-bottom:20px;"">Which word describes you more?</div>","0","pairing","15","unique","jealous","PosNeg","29","37","positive","negative","8","unique","left","true"
"html-keyboard-response","32","34313","0.0-2.0-0.15","1080","37","post","3","morning","2026-05-20","2026-06-03","2026-06-05T14:55:31.990Z","Mozilla/5.0 (iPhone; CPU iPhone OS 18_5 like Mac OS X) AppleWebKit/605.1.15 (KHTML, like Gecko) Mobile/15E148","343","597","240","","null","<div style=""font-size:60px;"">+</div>","null","fixation","","","","","","","","","","","",""
"html-button-response","33","35228","0.0-2.0-1.15","1080","37","post","3","morning","2026-05-20","2026-06-03","2026-06-05T14:55:31.990Z","Mozilla/5.0 (iPhone; CPU iPhone OS 18_5 like Mac OS X) AppleWebKit/605.1.15 (KHTML, like Gecko) Mobile/15E148","343","597","240","","912","<div class=""prompt"" style=""font-size:24px; margin-bottom:20px;"">Which word describes you more?</div>","0","pairing","16","knowledgeable","parasite","PosNeg","56","3","positive","negative","53","knowledgeable","left","true"
"html-keyboard-response","34","36031","0.0-2.0-0.16","1080","37","post","3","morning","2026-05-20","2026-06-03","2026-06-05T14:55:31.990Z","Mozilla/5.0 (iPhone; CPU iPhone OS 18_5 like Mac OS X) AppleWebKit/605.1.15 (KHTML, like Gecko) Mobile/15E148","343","597","240","","null","<div style=""font-size:60px;"">+</div>","null","fixation","","","","","","","","","","","",""
"html-button-response","35","37530","0.0-2.0-1.16","1080","37","post","3","morning","2026-05-20","2026-06-03","2026-06-05T14:55:31.990Z","Mozilla/5.0 (iPhone; CPU iPhone OS 18_5 like Mac OS X) AppleWebKit/605.1.15 (KHTML, like Gecko) Mobile/15E148","343","597","240","","1496","<div class=""prompt"" style=""font-size:24px; margin-bottom:20px;"">Which word describes you more?</div>","0","pairing","17","slob","pest","NegNeg","59","14","negative","negative","45","slob","left","true"
"html-keyboard-response","36","38333","0.0-2.0-0.17","1080","37","post","3","morning","2026-05-20","2026-06-03","2026-06-05T14:55:31.990Z","Mozilla/5.0 (iPhone; CPU iPhone OS 18_5 like Mac OS X) AppleWebKit/605.1.15 (KHTML, like Gecko) Mobile/15E148","343","597","240","","null","<div style=""font-size:60px;"">+</div>","null","fixation","","","","","","","","","","","",""
"html-button-response","37","40482","0.0-2.0-1.17","1080","37","post","3","morning","2026-05-20","2026-06-03","2026-06-05T14:55:31.990Z","Mozilla/5.0 (iPhone; CPU iPhone OS 18_5 like Mac OS X) AppleWebKit/605.1.15 (KHTML, like Gecko) Mobile/15E148","343","597","240","","2146","<div class=""prompt"" style=""font-size:24px; margin-bottom:20px;"">Which word describes you more?</div>","1","pairing","18","garbage","loser","NegNeg","1","40","negative","negative","39","loser","right","true"
"html-keyboard-response","38","41285","0.0-2.0-0.18","1080","37","post","3","morning","2026-05-20","2026-06-03","2026-06-05T14:55:31.990Z","Mozilla/5.0 (iPhone; CPU iPhone OS 18_5 like Mac OS X) AppleWebKit/605.1.15 (KHTML, like Gecko) Mobile/15E148","343","597","240","","null","<div style=""font-size:60px;"">+</div>","null","fixation","","","","","","","","","","","",""
"html-button-response","39","42000","0.0-2.0-1.18","1080","37","post","3","morning","2026-05-20","2026-06-03","2026-06-05T14:55:31.990Z","Mozilla/5.0 (iPhone; CPU iPhone OS 18_5 like Mac OS X) AppleWebKit/605.1.15 (KHTML, like Gecko) Mobile/15E148","343","597","240","","712","<div class=""prompt"" style=""font-size:24px; margin-bottom:20px;"">Which word describes you more?</div>","0","pairing","19","easygoing","arrogant","PosNeg","83","16","positive","negative","67","easygoing","left","true"
"html-keyboard-response","40","42803","0.0-2.0-0.19","1080","37","post","3","morning","2026-05-20","2026-06-03","2026-06-05T14:55:31.990Z","Mozilla/5.0 (iPhone; CPU iPhone OS 18_5 like Mac OS X) AppleWebKit/605.1.15 (KHTML, like Gecko) Mobile/15E148","343","597","240","","null","<div style=""font-size:60px;"">+</div>","null","fixation","","","","","","","","","","","",""
"html-button-response","41","43785","0.0-2.0-1.19","1080","37","post","3","morning","2026-05-20","2026-06-03","2026-06-05T14:55:31.990Z","Mozilla/5.0 (iPhone; CPU iPhone OS 18_5 like Mac OS X) AppleWebKit/605.1.15 (KHTML, like Gecko) Mobile/15E148","343","597","240","","979","<div class=""prompt"" style=""font-size:24px; margin-bottom:20px;"">Which word describes you more?</div>","1","pairing","20","miserable","admired","PosNeg","17","59","negative","positive","42","admired","right","true"
"html-keyboard-response","42","44587","0.0-2.0-0.20","1080","37","post","3","morning","2026-05-20","2026-06-03","2026-06-05T14:55:31.990Z","Mozilla/5.0 (iPhone; CPU iPhone OS 18_5 like Mac OS X) AppleWebKit/605.1.15 (KHTML, like Gecko) Mobile/15E148","343","597","240","","null","<div style=""font-size:60px;"">+</div>","null","fixation","","","","","","","","","","","",""
"html-button-response","43","45470","0.0-2.0-1.20","1080","37","post","3","morning","2026-05-20","2026-06-03","2026-06-05T14:55:31.990Z","Mozilla/5.0 (iPhone; CPU iPhone OS 18_5 like Mac OS X) AppleWebKit/605.1.15 (KHTML, like Gecko) Mobile/15E148","343","597","240","","881","<div class=""prompt"" style=""font-size:24px; margin-bottom:20px;"">Which word describes you more?</div>","0","pairing","21","heartbroken","anxious","NegNeg","0","78","negative","negative","78","heartbroken","left","true"
"html-keyboard-response","44","46273","0.0-2.0-0.21","1080","37","post","3","morning","2026-05-20","2026-06-03","2026-06-05T14:55:31.990Z","Mozilla/5.0 (iPhone; CPU iPhone OS 18_5 like Mac OS X) AppleWebKit/605.1.15 (KHTML, like Gecko) Mobile/15E148","343","597","240","","null","<div style=""font-size:60px;"">+</div>","null","fixation","","","","","","","","","","","",""
"html-button-response","45","47320","0.0-2.0-1.21","1080","37","post","3","morning","2026-05-20","2026-06-03","2026-06-05T14:55:31.990Z","Mozilla/5.0 (iPhone; CPU iPhone OS 18_5 like Mac OS X) AppleWebKit/605.1.15 (KHTML, like Gecko) Mobile/15E148","343","597","240","","1045","<div class=""prompt"" style=""font-size:24px; margin-bottom:20px;"">Which word describes you more?</div>","1","pairing","22","inspirational","goodwilled","PosPos","34","95","positive","positive","61","goodwilled","right","true"
"html-keyboard-response","46","48123","0.0-2.0-0.22","1080","37","post","3","morning","2026-05-20","2026-06-03","2026-06-05T14:55:31.990Z","Mozilla/5.0 (iPhone; CPU iPhone OS 18_5 like Mac OS X) AppleWebKit/605.1.15 (KHTML, like Gecko) Mobile/15E148","343","597","240","","null","<div style=""font-size:60px;"">+</div>","null","fixation","","","","","","","","","","","",""
"html-button-response","47","48806","0.0-2.0-1.22","1080","37","post","3","morning","2026-05-20","2026-06-03","2026-06-05T14:55:31.990Z","Mozilla/5.0 (iPhone; CPU iPhone OS 18_5 like Mac OS X) AppleWebKit/605.1.15 (KHTML, like Gecko) Mobile/15E148","343","597","240","","680","<div class=""prompt"" style=""font-size:24px; margin-bottom:20px;"">Which word describes you more?</div>","0","pairing","23","anxious","attractive","PosNeg","78","11","negative","positive","67","anxious","left","true"
"html-keyboard-response","48","49608","0.0-2.0-0.23","1080","37","post","3","morning","2026-05-20","2026-06-03","2026-06-05T14:55:31.990Z","Mozilla/5.0 (iPhone; CPU iPhone OS 18_5 like Mac OS X) AppleWebKit/605.1.15 (KHTML, like Gecko) Mobile/15E148","343","597","240","","null","<div style=""font-size:60px;"">+</div>","null","fixation","","","","","","","","","","","",""
"html-button-response","49","50523","0.0-2.0-1.23","1080","37","post","3","morning","2026-05-20","2026-06-03","2026-06-05T14:55:31.990Z","Mozilla/5.0 (iPhone; CPU iPhone OS 18_5 like Mac OS X) AppleWebKit/605.1.15 (KHTML, like Gecko) Mobile/15E148","343","597","240","","912","<div class=""prompt"" style=""font-size:24px; margin-bottom:20px;"">Which word describes you more?</div>","0","pairing","24","goodwilled","spirited","PosPos","95","28","positive","positive","67","goodwilled","left","true"
"instructions","50","51206","0.0-3.0","1080","37","post","3","morning","2026-05-20","2026-06-03","2026-06-05T14:55:31.990Z","Mozilla/5.0 (iPhone; CPU iPhone OS 18_5 like Mac OS X) AppleWebKit/605.1.15 (KHTML, like Gecko) Mobile/15E148","343","597","240","[{""page_index"":0,""viewing_time"":681}]","682","","","","","","","","","","","","","","",""
