"trial_type","trial_index","time_elapsed","internal_node_id","PUNS_ID","session_number","session_phase","session_day","session_slot","ema_start_date","ema_post_start_date","experiment_start","browser","screen_width","screen_height","timezone_offset","view_history","rt","stimulus","response","which_experiment_phase","trial_number","left_word","right_word","valence","left_base_rating","right_base_rating","left_valence","right_valence","abs_diff","participant_response","chosen_side","valid_response"
"pavlovia","0","2369","0.0-0.0","1014","35","post","2","afternoon","2026-02-05","2026-02-17","2026-02-19T01:01:26.367Z","Mozilla/5.0 (iPhone; CPU iPhone OS 18_7 like Mac OS X) AppleWebKit/605.1.15 (KHTML, like Gecko) Mobile/15E148","361","628","480","","","","","","","","","","","","","","","","",""
"instructions","1","28803","0.0-1.0","1014","35","post","2","afternoon","2026-02-05","2026-02-17","2026-02-19T01:01:26.367Z","Mozilla/5.0 (iPhone; CPU iPhone OS 18_7 like Mac OS X) AppleWebKit/605.1.15 (KHTML, like Gecko) Mobile/15E148","361","628","480","[{""page_index"":0,""viewing_time"":23559},{""page_index"":1,""viewing_time"":462},{""page_index"":2,""viewing_time"":1465},{""page_index"":3,""viewing_time"":944}]","26431","","","","","","","","","","","","","","",""
"html-keyboard-response","2","29608","0.0-2.0-0.0","1014","35","post","2","afternoon","2026-02-05","2026-02-17","2026-02-19T01:01:26.367Z","Mozilla/5.0 (iPhone; CPU iPhone OS 18_7 like Mac OS X) AppleWebKit/605.1.15 (KHTML, like Gecko) Mobile/15E148","361","628","480","","null","<div style=""font-size:60px;"">+</div>","null","fixation","","","","","","","","","","","",""
"html-button-response","3","30802","0.0-2.0-1.0","1014","35","post","2","afternoon","2026-02-05","2026-02-17","2026-02-19T01:01:26.367Z","Mozilla/5.0 (iPhone; CPU iPhone OS 18_7 like Mac OS X) AppleWebKit/605.1.15 (KHTML, like Gecko) Mobile/15E148","361","628","480","","1189","<div class=""prompt"" style=""font-size:24px; margin-bottom:20px;"">Which word describes you more?</div>","1","pairing","1","jealous","selfish","NegNeg","6","3","negative","negative","3","selfish","right","true"
"html-keyboard-response","4","31605","0.0-2.0-0.1","1014","35","post","2","afternoon","2026-02-05","2026-02-17","2026-02-19T01:01:26.367Z","Mozilla/5.0 (iPhone; CPU iPhone OS 18_7 like Mac OS X) AppleWebKit/605.1.15 (KHTML, like Gecko) Mobile/15E148","361","628","480","","null","<div style=""font-size:60px;"">+</div>","null","fixation","","","","","","","","","","","",""
"html-button-response","5","33010","0.0-2.0-1.1","1014","35","post","2","afternoon","2026-02-05","2026-02-17","2026-02-19T01:01:26.367Z","Mozilla/5.0 (iPhone; CPU iPhone OS 18_7 like Mac OS X) AppleWebKit/605.1.15 (KHTML, like Gecko) Mobile/15E148","361","628","480","","1401","<div class=""prompt"" style=""font-size:24px; margin-bottom:20px;"">Which word describes you more?</div>","0","pairing","2","inadequate","jealous","NegNeg","0","6","negative","negative","6","inadequate","left","true"
"html-keyboard-response","6","33812","0.0-2.0-0.2","1014","35","post","2","afternoon","2026-02-05","2026-02-17","2026-02-19T01:01:26.367Z","Mozilla/5.0 (iPhone; CPU iPhone OS 18_7 like Mac OS X) AppleWebKit/605.1.15 (KHTML, like Gecko) Mobile/15E148","361","628","480","","null","<div style=""font-size:60px;"">+</div>","null","fixation","","","","","","","","","","","",""
"html-button-response","7","34757","0.0-2.0-1.2","1014","35","post","2","afternoon","2026-02-05","2026-02-17","2026-02-19T01:01:26.367Z","Mozilla/5.0 (iPhone; CPU iPhone OS 18_7 like Mac OS X) AppleWebKit/605.1.15 (KHTML, like Gecko) Mobile/15E148","361","628","480","","943","<div class=""prompt"" style=""font-size:24px; margin-bottom:20px;"">Which word describes you more?</div>","0","pairing","3","seeker","awkward","PosNeg","49","51","positive","negative","2","seeker","left","true"
"html-keyboard-response","8","35560","0.0-2.0-0.3","1014","35","post","2","afternoon","2026-02-05","2026-02-17","2026-02-19T01:01:26.367Z","Mozilla/5.0 (iPhone; CPU iPhone OS 18_7 like Mac OS X) AppleWebKit/605.1.15 (KHTML, like Gecko) Mobile/15E148","361","628","480","","null","<div style=""font-size:60px;"">+</div>","null","fixation","","","","","","","","","","","",""
"html-button-response","9","38518","0.0-2.0-1.3","1014","35","post","2","afternoon","2026-02-05","2026-02-17","2026-02-19T01:01:26.367Z","Mozilla/5.0 (iPhone; CPU iPhone OS 18_7 like Mac OS X) AppleWebKit/605.1.15 (KHTML, like Gecko) Mobile/15E148","361","628","480","","2957","<div class=""prompt"" style=""font-size:24px; margin-bottom:20px;"">Which word describes you more?</div>","0","pairing","4","brave","companion","PosPos","51","97","positive","positive","46","brave","left","true"
"html-keyboard-response","10","39321","0.0-2.0-0.4","1014","35","post","2","afternoon","2026-02-05","2026-02-17","2026-02-19T01:01:26.367Z","Mozilla/5.0 (iPhone; CPU iPhone OS 18_7 like Mac OS X) AppleWebKit/605.1.15 (KHTML, like Gecko) Mobile/15E148","361","628","480","","null","<div style=""font-size:60px;"">+</div>","null","fixation","","","","","","","","","","","",""
"html-button-response","11","40931","0.0-2.0-1.4","1014","35","post","2","afternoon","2026-02-05","2026-02-17","2026-02-19T01:01:26.367Z","Mozilla/5.0 (iPhone; CPU iPhone OS 18_7 like Mac OS X) AppleWebKit/605.1.15 (KHTML, like Gecko) Mobile/15E148","361","628","480","","1609","<div class=""prompt"" style=""font-size:24px; margin-bottom:20px;"">Which word describes you more?</div>","1","pairing","5","hateful","merciful","PosNeg","18","11","negative","positive","7","merciful","right","true"
"html-keyboard-response","12","41735","0.0-2.0-0.5","1014","35","post","2","afternoon","2026-02-05","2026-02-17","2026-02-19T01:01:26.367Z","Mozilla/5.0 (iPhone; CPU iPhone OS 18_7 like Mac OS X) AppleWebKit/605.1.15 (KHTML, like Gecko) Mobile/15E148","361","628","480","","null","<div style=""font-size:60px;"">+</div>","null","fixation","","","","","","","","","","","",""
"html-button-response","13","43235","0.0-2.0-1.5","1014","35","post","2","afternoon","2026-02-05","2026-02-17","2026-02-19T01:01:26.367Z","Mozilla/5.0 (iPhone; CPU iPhone OS 18_7 like Mac OS X) AppleWebKit/605.1.15 (KHTML, like Gecko) Mobile/15E148","361","628","480","","1497","<div class=""prompt"" style=""font-size:24px; margin-bottom:20px;"">Which word describes you more?</div>","0","pairing","6","regretful","unpleasant","NegNeg","17","6","negative","negative","11","regretful","left","true"
"html-keyboard-response","14","44037","0.0-2.0-0.6","1014","35","post","2","afternoon","2026-02-05","2026-02-17","2026-02-19T01:01:26.367Z","Mozilla/5.0 (iPhone; CPU iPhone OS 18_7 like Mac OS X) AppleWebKit/605.1.15 (KHTML, like Gecko) Mobile/15E148","361","628","480","","null","<div style=""font-size:60px;"">+</div>","null","fixation","","","","","","","","","","","",""
"html-button-response","15","44729","0.0-2.0-1.6","1014","35","post","2","afternoon","2026-02-05","2026-02-17","2026-02-19T01:01:26.367Z","Mozilla/5.0 (iPhone; CPU iPhone OS 18_7 like Mac OS X) AppleWebKit/605.1.15 (KHTML, like Gecko) Mobile/15E148","361","628","480","","689","<div class=""prompt"" style=""font-size:24px; margin-bottom:20px;"">Which word describes you more?</div>","0","pairing","7","smiley","merciful","PosPos","85","11","positive","positive","74","smiley","left","true"
"html-keyboard-response","16","45531","0.0-2.0-0.7","1014","35","post","2","afternoon","2026-02-05","2026-02-17","2026-02-19T01:01:26.367Z","Mozilla/5.0 (iPhone; CPU iPhone OS 18_7 like Mac OS X) AppleWebKit/605.1.15 (KHTML, like Gecko) Mobile/15E148","361","628","480","","null","<div style=""font-size:60px;"">+</div>","null","fixation","","","","","","","","","","","",""
"html-button-response","17","46925","0.0-2.0-1.7","1014","35","post","2","afternoon","2026-02-05","2026-02-17","2026-02-19T01:01:26.367Z","Mozilla/5.0 (iPhone; CPU iPhone OS 18_7 like Mac OS X) AppleWebKit/605.1.15 (KHTML, like Gecko) Mobile/15E148","361","628","480","","1391","<div class=""prompt"" style=""font-size:24px; margin-bottom:20px;"">Which word describes you more?</div>","1","pairing","8","creep","authentic","PosNeg","0","96","negative","positive","96","authentic","right","true"
"html-keyboard-response","18","47727","0.0-2.0-0.8","1014","35","post","2","afternoon","2026-02-05","2026-02-17","2026-02-19T01:01:26.367Z","Mozilla/5.0 (iPhone; CPU iPhone OS 18_7 like Mac OS X) AppleWebKit/605.1.15 (KHTML, like Gecko) Mobile/15E148","361","628","480","","null","<div style=""font-size:60px;"">+</div>","null","fixation","","","","","","","","","","","",""
"html-button-response","19","48683","0.0-2.0-1.8","1014","35","post","2","afternoon","2026-02-05","2026-02-17","2026-02-19T01:01:26.367Z","Mozilla/5.0 (iPhone; CPU iPhone OS 18_7 like Mac OS X) AppleWebKit/605.1.15 (KHTML, like Gecko) Mobile/15E148","361","628","480","","954","<div class=""prompt"" style=""font-size:24px; margin-bottom:20px;"">Which word describes you more?</div>","0","pairing","9","honest","toxic","PosNeg","68","6","positive","negative","62","honest","left","true"
"html-keyboard-response","20","49486","0.0-2.0-0.9","1014","35","post","2","afternoon","2026-02-05","2026-02-17","2026-02-19T01:01:26.367Z","Mozilla/5.0 (iPhone; CPU iPhone OS 18_7 like Mac OS X) AppleWebKit/605.1.15 (KHTML, like Gecko) Mobile/15E148","361","628","480","","null","<div style=""font-size:60px;"">+</div>","null","fixation","","","","","","","","","","","",""
"html-button-response","21","50520","0.0-2.0-1.9","1014","35","post","2","afternoon","2026-02-05","2026-02-17","2026-02-19T01:01:26.367Z","Mozilla/5.0 (iPhone; CPU iPhone OS 18_7 like Mac OS X) AppleWebKit/605.1.15 (KHTML, like Gecko) Mobile/15E148","361","628","480","","1032","<div class=""prompt"" style=""font-size:24px; margin-bottom:20px;"">Which word describes you more?</div>","1","pairing","10","awkward","legendary","PosNeg","51","61","negative","positive","10","legendary","right","true"
"html-keyboard-response","22","51322","0.0-2.0-0.10","1014","35","post","2","afternoon","2026-02-05","2026-02-17","2026-02-19T01:01:26.367Z","Mozilla/5.0 (iPhone; CPU iPhone OS 18_7 like Mac OS X) AppleWebKit/605.1.15 (KHTML, like Gecko) Mobile/15E148","361","628","480","","null","<div style=""font-size:60px;"">+</div>","null","fixation","","","","","","","","","","","",""
"html-button-response","23","52221","0.0-2.0-1.10","1014","35","post","2","afternoon","2026-02-05","2026-02-17","2026-02-19T01:01:26.367Z","Mozilla/5.0 (iPhone; CPU iPhone OS 18_7 like Mac OS X) AppleWebKit/605.1.15 (KHTML, like Gecko) Mobile/15E148","361","628","480","","897","<div class=""prompt"" style=""font-size:24px; margin-bottom:20px;"">Which word describes you more?</div>","0","pairing","11","brave","hesitant","PosNeg","51","38","positive","negative","13","brave","left","true"
"html-keyboard-response","24","53025","0.0-2.0-0.11","1014","35","post","2","afternoon","2026-02-05","2026-02-17","2026-02-19T01:01:26.367Z","Mozilla/5.0 (iPhone; CPU iPhone OS 18_7 like Mac OS X) AppleWebKit/605.1.15 (KHTML, like Gecko) Mobile/15E148","361","628","480","","null","<div style=""font-size:60px;"">+</div>","null","fixation","","","","","","","","","","","",""
"html-button-response","25","54014","0.0-2.0-1.11","1014","35","post","2","afternoon","2026-02-05","2026-02-17","2026-02-19T01:01:26.367Z","Mozilla/5.0 (iPhone; CPU iPhone OS 18_7 like Mac OS X) AppleWebKit/605.1.15 (KHTML, like Gecko) Mobile/15E148","361","628","480","","987","<div class=""prompt"" style=""font-size:24px; margin-bottom:20px;"">Which word describes you more?</div>","0","pairing","12","knowledgeable","adorable","PosPos","88","100","positive","positive","12","knowledgeable","left","true"
"html-keyboard-response","26","54816","0.0-2.0-0.12","1014","35","post","2","afternoon","2026-02-05","2026-02-17","2026-02-19T01:01:26.367Z","Mozilla/5.0 (iPhone; CPU iPhone OS 18_7 like Mac OS X) AppleWebKit/605.1.15 (KHTML, like Gecko) Mobile/15E148","361","628","480","","null","<div style=""font-size:60px;"">+</div>","null","fixation","","","","","","","","","","","",""
"html-button-response","27","55686","0.0-2.0-1.12","1014","35","post","2","afternoon","2026-02-05","2026-02-17","2026-02-19T01:01:26.367Z","Mozilla/5.0 (iPhone; CPU iPhone OS 18_7 like Mac OS X) AppleWebKit/605.1.15 (KHTML, like Gecko) Mobile/15E148","361","628","480","","867","<div class=""prompt"" style=""font-size:24px; margin-bottom:20px;"">Which word describes you more?</div>","0","pairing","13","companion","liar","PosNeg","97","5","positive","negative","92","companion","left","true"
"html-keyboard-response","28","56488","0.0-2.0-0.13","1014","35","post","2","afternoon","2026-02-05","2026-02-17","2026-02-19T01:01:26.367Z","Mozilla/5.0 (iPhone; CPU iPhone OS 18_7 like Mac OS X) AppleWebKit/605.1.15 (KHTML, like Gecko) Mobile/15E148","361","628","480","","null","<div style=""font-size:60px;"">+</div>","null","fixation","","","","","","","","","","","",""
"html-button-response","29","57878","0.0-2.0-1.13","1014","35","post","2","afternoon","2026-02-05","2026-02-17","2026-02-19T01:01:26.367Z","Mozilla/5.0 (iPhone; CPU iPhone OS 18_7 like Mac OS X) AppleWebKit/605.1.15 (KHTML, like Gecko) Mobile/15E148","361","628","480","","1388","<div class=""prompt"" style=""font-size:24px; margin-bottom:20px;"">Which word describes you more?</div>","1","pairing","14","jealous","adorable","PosNeg","6","100","negative","positive","94","adorable","right","true"
"html-keyboard-response","30","58679","0.0-2.0-0.14","1014","35","post","2","afternoon","2026-02-05","2026-02-17","2026-02-19T01:01:26.367Z","Mozilla/5.0 (iPhone; CPU iPhone OS 18_7 like Mac OS X) AppleWebKit/605.1.15 (KHTML, like Gecko) Mobile/15E148","361","628","480","","null","<div style=""font-size:60px;"">+</div>","null","fixation","","","","","","","","","","","",""
"html-button-response","31","59477","0.0-2.0-1.14","1014","35","post","2","afternoon","2026-02-05","2026-02-17","2026-02-19T01:01:26.367Z","Mozilla/5.0 (iPhone; CPU iPhone OS 18_7 like Mac OS X) AppleWebKit/605.1.15 (KHTML, like Gecko) Mobile/15E148","361","628","480","","797","<div class=""prompt"" style=""font-size:24px; margin-bottom:20px;"">Which word describes you more?</div>","0","pairing","15","admired","arrogant","PosNeg","89","12","positive","negative","77","admired","left","true"
"html-keyboard-response","32","60280","0.0-2.0-0.15","1014","35","post","2","afternoon","2026-02-05","2026-02-17","2026-02-19T01:01:26.367Z","Mozilla/5.0 (iPhone; CPU iPhone OS 18_7 like Mac OS X) AppleWebKit/605.1.15 (KHTML, like Gecko) Mobile/15E148","361","628","480","","null","<div style=""font-size:60px;"">+</div>","null","fixation","","","","","","","","","","","",""
"html-button-response","33","62079","0.0-2.0-1.15","1014","35","post","2","afternoon","2026-02-05","2026-02-17","2026-02-19T01:01:26.367Z","Mozilla/5.0 (iPhone; CPU iPhone OS 18_7 like Mac OS X) AppleWebKit/605.1.15 (KHTML, like Gecko) Mobile/15E148","361","628","480","","1795","<div class=""prompt"" style=""font-size:24px; margin-bottom:20px;"">Which word describes you more?</div>","1","pairing","16","unwanted","outcast","NegNeg","3","43","negative","negative","40","outcast","right","true"
"html-keyboard-response","34","62881","0.0-2.0-0.16","1014","35","post","2","afternoon","2026-02-05","2026-02-17","2026-02-19T01:01:26.367Z","Mozilla/5.0 (iPhone; CPU iPhone OS 18_7 like Mac OS X) AppleWebKit/605.1.15 (KHTML, like Gecko) Mobile/15E148","361","628","480","","null","<div style=""font-size:60px;"">+</div>","null","fixation","","","","","","","","","","","",""
"html-button-response","35","63812","0.0-2.0-1.16","1014","35","post","2","afternoon","2026-02-05","2026-02-17","2026-02-19T01:01:26.367Z","Mozilla/5.0 (iPhone; CPU iPhone OS 18_7 like Mac OS X) AppleWebKit/605.1.15 (KHTML, like Gecko) Mobile/15E148","361","628","480","","929","<div class=""prompt"" style=""font-size:24px; margin-bottom:20px;"">Which word describes you more?</div>","0","pairing","17","appealing","resourceful","PosPos","86","70","positive","positive","16","appealing","left","true"
"html-keyboard-response","36","64615","0.0-2.0-0.17","1014","35","post","2","afternoon","2026-02-05","2026-02-17","2026-02-19T01:01:26.367Z","Mozilla/5.0 (iPhone; CPU iPhone OS 18_7 like Mac OS X) AppleWebKit/605.1.15 (KHTML, like Gecko) Mobile/15E148","361","628","480","","null","<div style=""font-size:60px;"">+</div>","null","fixation","","","","","","","","","","","",""
"html-button-response","37","65427","0.0-2.0-1.17","1014","35","post","2","afternoon","2026-02-05","2026-02-17","2026-02-19T01:01:26.367Z","Mozilla/5.0 (iPhone; CPU iPhone OS 18_7 like Mac OS X) AppleWebKit/605.1.15 (KHTML, like Gecko) Mobile/15E148","361","628","480","","810","<div class=""prompt"" style=""font-size:24px; margin-bottom:20px;"">Which word describes you more?</div>","1","pairing","18","hateful","tolerant","PosNeg","18","57","negative","positive","39","tolerant","right","true"
"html-keyboard-response","38","66229","0.0-2.0-0.18","1014","35","post","2","afternoon","2026-02-05","2026-02-17","2026-02-19T01:01:26.367Z","Mozilla/5.0 (iPhone; CPU iPhone OS 18_7 like Mac OS X) AppleWebKit/605.1.15 (KHTML, like Gecko) Mobile/15E148","361","628","480","","null","<div style=""font-size:60px;"">+</div>","null","fixation","","","","","","","","","","","",""
"html-button-response","39","66947","0.0-2.0-1.18","1014","35","post","2","afternoon","2026-02-05","2026-02-17","2026-02-19T01:01:26.367Z","Mozilla/5.0 (iPhone; CPU iPhone OS 18_7 like Mac OS X) AppleWebKit/605.1.15 (KHTML, like Gecko) Mobile/15E148","361","628","480","","714","<div class=""prompt"" style=""font-size:24px; margin-bottom:20px;"">Which word describes you more?</div>","0","pairing","19","anxious","witty","PosNeg","22","86","negative","positive","64","anxious","left","true"
"html-keyboard-response","40","67750","0.0-2.0-0.19","1014","35","post","2","afternoon","2026-02-05","2026-02-17","2026-02-19T01:01:26.367Z","Mozilla/5.0 (iPhone; CPU iPhone OS 18_7 like Mac OS X) AppleWebKit/605.1.15 (KHTML, like Gecko) Mobile/15E148","361","628","480","","null","<div style=""font-size:60px;"">+</div>","null","fixation","","","","","","","","","","","",""
"html-button-response","41","68617","0.0-2.0-1.19","1014","35","post","2","afternoon","2026-02-05","2026-02-17","2026-02-19T01:01:26.367Z","Mozilla/5.0 (iPhone; CPU iPhone OS 18_7 like Mac OS X) AppleWebKit/605.1.15 (KHTML, like Gecko) Mobile/15E148","361","628","480","","866","<div class=""prompt"" style=""font-size:24px; margin-bottom:20px;"">Which word describes you more?</div>","0","pairing","20","outcast","distressed","NegNeg","43","9","negative","negative","34","outcast","left","true"
"html-keyboard-response","42","69419","0.0-2.0-0.20","1014","35","post","2","afternoon","2026-02-05","2026-02-17","2026-02-19T01:01:26.367Z","Mozilla/5.0 (iPhone; CPU iPhone OS 18_7 like Mac OS X) AppleWebKit/605.1.15 (KHTML, like Gecko) Mobile/15E148","361","628","480","","null","<div style=""font-size:60px;"">+</div>","null","fixation","","","","","","","","","","","",""
"html-button-response","43","70167","0.0-2.0-1.20","1014","35","post","2","afternoon","2026-02-05","2026-02-17","2026-02-19T01:01:26.367Z","Mozilla/5.0 (iPhone; CPU iPhone OS 18_7 like Mac OS X) AppleWebKit/605.1.15 (KHTML, like Gecko) Mobile/15E148","361","628","480","","745","<div class=""prompt"" style=""font-size:24px; margin-bottom:20px;"">Which word describes you more?</div>","0","pairing","21","satisfied","brave","PosPos","94","51","positive","positive","43","satisfied","left","true"
"html-keyboard-response","44","70969","0.0-2.0-0.21","1014","35","post","2","afternoon","2026-02-05","2026-02-17","2026-02-19T01:01:26.367Z","Mozilla/5.0 (iPhone; CPU iPhone OS 18_7 like Mac OS X) AppleWebKit/605.1.15 (KHTML, like Gecko) Mobile/15E148","361","628","480","","null","<div style=""font-size:60px;"">+</div>","null","fixation","","","","","","","","","","","",""
"html-button-response","45","71943","0.0-2.0-1.21","1014","35","post","2","afternoon","2026-02-05","2026-02-17","2026-02-19T01:01:26.367Z","Mozilla/5.0 (iPhone; CPU iPhone OS 18_7 like Mac OS X) AppleWebKit/605.1.15 (KHTML, like Gecko) Mobile/15E148","361","628","480","","973","<div class=""prompt"" style=""font-size:24px; margin-bottom:20px;"">Which word describes you more?</div>","1","pairing","22","disgrace","hopeful","PosNeg","7","84","negative","positive","77","hopeful","right","true"
"html-keyboard-response","46","72746","0.0-2.0-0.22","1014","35","post","2","afternoon","2026-02-05","2026-02-17","2026-02-19T01:01:26.367Z","Mozilla/5.0 (iPhone; CPU iPhone OS 18_7 like Mac OS X) AppleWebKit/605.1.15 (KHTML, like Gecko) Mobile/15E148","361","628","480","","null","<div style=""font-size:60px;"">+</div>","null","fixation","","","","","","","","","","","",""
"html-button-response","47","73574","0.0-2.0-1.22","1014","35","post","2","afternoon","2026-02-05","2026-02-17","2026-02-19T01:01:26.367Z","Mozilla/5.0 (iPhone; CPU iPhone OS 18_7 like Mac OS X) AppleWebKit/605.1.15 (KHTML, like Gecko) Mobile/15E148","361","628","480","","824","<div class=""prompt"" style=""font-size:24px; margin-bottom:20px;"">Which word describes you more?</div>","0","pairing","23","merciful","spectacular","PosPos","11","85","positive","positive","74","merciful","left","true"
"html-keyboard-response","48","74376","0.0-2.0-0.23","1014","35","post","2","afternoon","2026-02-05","2026-02-17","2026-02-19T01:01:26.367Z","Mozilla/5.0 (iPhone; CPU iPhone OS 18_7 like Mac OS X) AppleWebKit/605.1.15 (KHTML, like Gecko) Mobile/15E148","361","628","480","","null","<div style=""font-size:60px;"">+</div>","null","fixation","","","","","","","","","","","",""
"html-button-response","49","75504","0.0-2.0-1.23","1014","35","post","2","afternoon","2026-02-05","2026-02-17","2026-02-19T01:01:26.367Z","Mozilla/5.0 (iPhone; CPU iPhone OS 18_7 like Mac OS X) AppleWebKit/605.1.15 (KHTML, like Gecko) Mobile/15E148","361","628","480","","1126","<div class=""prompt"" style=""font-size:24px; margin-bottom:20px;"">Which word describes you more?</div>","0","pairing","24","inadequate","disloyal","NegNeg","0","1","negative","negative","1","inadequate","left","true"
"instructions","50","76180","0.0-3.0","1014","35","post","2","afternoon","2026-02-05","2026-02-17","2026-02-19T01:01:26.367Z","Mozilla/5.0 (iPhone; CPU iPhone OS 18_7 like Mac OS X) AppleWebKit/605.1.15 (KHTML, like Gecko) Mobile/15E148","361","628","480","[{""page_index"":0,""viewing_time"":674}]","674","","","","","","","","","","","","","","",""
