"trial_type","trial_index","time_elapsed","internal_node_id","PUNS_ID","session_number","session_phase","session_day","session_slot","ema_start_date","ema_post_start_date","experiment_start","browser","screen_width","screen_height","timezone_offset","view_history","rt","stimulus","response","which_experiment_phase","trial_number","left_word","right_word","valence","left_base_rating","right_base_rating","left_valence","right_valence","abs_diff","participant_response","chosen_side","valid_response"
"pavlovia","0","1221","0.0-0.0","1015","23","pre","8","afternoon","2026-03-03","2026-03-15","2026-03-11T17:22:38.695Z","Mozilla/5.0 (Linux; Android 14; Pixel 4a (5G) Build/UP1A.231105.001.B2; wv) AppleWebKit/537.36 (KHTML, like Gecko) Version/4.0 Chrome/145.0.7632.159 Mobile Safari/537.36","379","674","240","","","","","","","","","","","","","","","","",""
"instructions","1","56348","0.0-1.0","1015","23","pre","8","afternoon","2026-03-03","2026-03-15","2026-03-11T17:22:38.695Z","Mozilla/5.0 (Linux; Android 14; Pixel 4a (5G) Build/UP1A.231105.001.B2; wv) AppleWebKit/537.36 (KHTML, like Gecko) Version/4.0 Chrome/145.0.7632.159 Mobile Safari/537.36","379","674","240","[{""page_index"":0,""viewing_time"":6271},{""page_index"":1,""viewing_time"":42901},{""page_index"":2,""viewing_time"":4077},{""page_index"":3,""viewing_time"":1875}]","55125","","","","","","","","","","","","","","",""
"html-keyboard-response","2","57152","0.0-2.0-0.0","1015","23","pre","8","afternoon","2026-03-03","2026-03-15","2026-03-11T17:22:38.695Z","Mozilla/5.0 (Linux; Android 14; Pixel 4a (5G) Build/UP1A.231105.001.B2; wv) AppleWebKit/537.36 (KHTML, like Gecko) Version/4.0 Chrome/145.0.7632.159 Mobile Safari/537.36","379","674","240","","null","<div style=""font-size:60px;"">+</div>","null","fixation","","","","","","","","","","","",""
"html-button-response","3","59430","0.0-2.0-1.0","1015","23","pre","8","afternoon","2026-03-03","2026-03-15","2026-03-11T17:22:38.695Z","Mozilla/5.0 (Linux; Android 14; Pixel 4a (5G) Build/UP1A.231105.001.B2; wv) AppleWebKit/537.36 (KHTML, like Gecko) Version/4.0 Chrome/145.0.7632.159 Mobile Safari/537.36","379","674","240","","2271","<div class=""prompt"" style=""font-size:24px; margin-bottom:20px;"">Which word describes you more?</div>","0","pairing","1","brave","alluring","PosPos","100","23","positive","positive","77","brave","left","true"
"html-keyboard-response","4","60234","0.0-2.0-0.1","1015","23","pre","8","afternoon","2026-03-03","2026-03-15","2026-03-11T17:22:38.695Z","Mozilla/5.0 (Linux; Android 14; Pixel 4a (5G) Build/UP1A.231105.001.B2; wv) AppleWebKit/537.36 (KHTML, like Gecko) Version/4.0 Chrome/145.0.7632.159 Mobile Safari/537.36","379","674","240","","null","<div style=""font-size:60px;"">+</div>","null","fixation","","","","","","","","","","","",""
"html-button-response","5","63765","0.0-2.0-1.1","1015","23","pre","8","afternoon","2026-03-03","2026-03-15","2026-03-11T17:22:38.695Z","Mozilla/5.0 (Linux; Android 14; Pixel 4a (5G) Build/UP1A.231105.001.B2; wv) AppleWebKit/537.36 (KHTML, like Gecko) Version/4.0 Chrome/145.0.7632.159 Mobile Safari/537.36","379","674","240","","3527","<div class=""prompt"" style=""font-size:24px; margin-bottom:20px;"">Which word describes you more?</div>","1","pairing","2","humorous","unwanted","PosNeg","72","81","positive","negative","9","unwanted","right","true"
"html-keyboard-response","6","64567","0.0-2.0-0.2","1015","23","pre","8","afternoon","2026-03-03","2026-03-15","2026-03-11T17:22:38.695Z","Mozilla/5.0 (Linux; Android 14; Pixel 4a (5G) Build/UP1A.231105.001.B2; wv) AppleWebKit/537.36 (KHTML, like Gecko) Version/4.0 Chrome/145.0.7632.159 Mobile Safari/537.36","379","674","240","","null","<div style=""font-size:60px;"">+</div>","null","fixation","","","","","","","","","","","",""
"html-button-response","7","67335","0.0-2.0-1.2","1015","23","pre","8","afternoon","2026-03-03","2026-03-15","2026-03-11T17:22:38.695Z","Mozilla/5.0 (Linux; Android 14; Pixel 4a (5G) Build/UP1A.231105.001.B2; wv) AppleWebKit/537.36 (KHTML, like Gecko) Version/4.0 Chrome/145.0.7632.159 Mobile Safari/537.36","379","674","240","","2765","<div class=""prompt"" style=""font-size:24px; margin-bottom:20px;"">Which word describes you more?</div>","0","pairing","3","blissful","loser","PosNeg","44","0","positive","negative","44","blissful","left","true"
"html-keyboard-response","8","68138","0.0-2.0-0.3","1015","23","pre","8","afternoon","2026-03-03","2026-03-15","2026-03-11T17:22:38.695Z","Mozilla/5.0 (Linux; Android 14; Pixel 4a (5G) Build/UP1A.231105.001.B2; wv) AppleWebKit/537.36 (KHTML, like Gecko) Version/4.0 Chrome/145.0.7632.159 Mobile Safari/537.36","379","674","240","","null","<div style=""font-size:60px;"">+</div>","null","fixation","","","","","","","","","","","",""
"html-button-response","9","69968","0.0-2.0-1.3","1015","23","pre","8","afternoon","2026-03-03","2026-03-15","2026-03-11T17:22:38.695Z","Mozilla/5.0 (Linux; Android 14; Pixel 4a (5G) Build/UP1A.231105.001.B2; wv) AppleWebKit/537.36 (KHTML, like Gecko) Version/4.0 Chrome/145.0.7632.159 Mobile Safari/537.36","379","674","240","","1825","<div class=""prompt"" style=""font-size:24px; margin-bottom:20px;"">Which word describes you more?</div>","0","pairing","4","talented","unpleasant","PosNeg","100","0","positive","negative","100","talented","left","true"
"html-keyboard-response","10","70772","0.0-2.0-0.4","1015","23","pre","8","afternoon","2026-03-03","2026-03-15","2026-03-11T17:22:38.695Z","Mozilla/5.0 (Linux; Android 14; Pixel 4a (5G) Build/UP1A.231105.001.B2; wv) AppleWebKit/537.36 (KHTML, like Gecko) Version/4.0 Chrome/145.0.7632.159 Mobile Safari/537.36","379","674","240","","null","<div style=""font-size:60px;"">+</div>","null","fixation","","","","","","","","","","","",""
"html-button-response","11","75587","0.0-2.0-1.4","1015","23","pre","8","afternoon","2026-03-03","2026-03-15","2026-03-11T17:22:38.695Z","Mozilla/5.0 (Linux; Android 14; Pixel 4a (5G) Build/UP1A.231105.001.B2; wv) AppleWebKit/537.36 (KHTML, like Gecko) Version/4.0 Chrome/145.0.7632.159 Mobile Safari/537.36","379","674","240","","4812","<div class=""prompt"" style=""font-size:24px; margin-bottom:20px;"">Which word describes you more?</div>","1","pairing","5","boring","adorable","PosNeg","100","0","negative","positive","100","adorable","right","true"
"html-keyboard-response","12","76389","0.0-2.0-0.5","1015","23","pre","8","afternoon","2026-03-03","2026-03-15","2026-03-11T17:22:38.695Z","Mozilla/5.0 (Linux; Android 14; Pixel 4a (5G) Build/UP1A.231105.001.B2; wv) AppleWebKit/537.36 (KHTML, like Gecko) Version/4.0 Chrome/145.0.7632.159 Mobile Safari/537.36","379","674","240","","null","<div style=""font-size:60px;"">+</div>","null","fixation","","","","","","","","","","","",""
"html-button-response","13","78863","0.0-2.0-1.5","1015","23","pre","8","afternoon","2026-03-03","2026-03-15","2026-03-11T17:22:38.695Z","Mozilla/5.0 (Linux; Android 14; Pixel 4a (5G) Build/UP1A.231105.001.B2; wv) AppleWebKit/537.36 (KHTML, like Gecko) Version/4.0 Chrome/145.0.7632.159 Mobile Safari/537.36","379","674","240","","2467","<div class=""prompt"" style=""font-size:24px; margin-bottom:20px;"">Which word describes you more?</div>","0","pairing","6","honest","cooperative","PosPos","100","50","positive","positive","50","honest","left","true"
"html-keyboard-response","14","79666","0.0-2.0-0.6","1015","23","pre","8","afternoon","2026-03-03","2026-03-15","2026-03-11T17:22:38.695Z","Mozilla/5.0 (Linux; Android 14; Pixel 4a (5G) Build/UP1A.231105.001.B2; wv) AppleWebKit/537.36 (KHTML, like Gecko) Version/4.0 Chrome/145.0.7632.159 Mobile Safari/537.36","379","674","240","","null","<div style=""font-size:60px;"">+</div>","null","fixation","","","","","","","","","","","",""
"html-button-response","15","82178","0.0-2.0-1.6","1015","23","pre","8","afternoon","2026-03-03","2026-03-15","2026-03-11T17:22:38.695Z","Mozilla/5.0 (Linux; Android 14; Pixel 4a (5G) Build/UP1A.231105.001.B2; wv) AppleWebKit/537.36 (KHTML, like Gecko) Version/4.0 Chrome/145.0.7632.159 Mobile Safari/537.36","379","674","240","","2509","<div class=""prompt"" style=""font-size:24px; margin-bottom:20px;"">Which word describes you more?</div>","1","pairing","7","inadequate","spontaneous","PosNeg","0","51","negative","positive","51","spontaneous","right","true"
"html-keyboard-response","16","82980","0.0-2.0-0.7","1015","23","pre","8","afternoon","2026-03-03","2026-03-15","2026-03-11T17:22:38.695Z","Mozilla/5.0 (Linux; Android 14; Pixel 4a (5G) Build/UP1A.231105.001.B2; wv) AppleWebKit/537.36 (KHTML, like Gecko) Version/4.0 Chrome/145.0.7632.159 Mobile Safari/537.36","379","674","240","","null","<div style=""font-size:60px;"">+</div>","null","fixation","","","","","","","","","","","",""
"html-button-response","17","84632","0.0-2.0-1.7","1015","23","pre","8","afternoon","2026-03-03","2026-03-15","2026-03-11T17:22:38.695Z","Mozilla/5.0 (Linux; Android 14; Pixel 4a (5G) Build/UP1A.231105.001.B2; wv) AppleWebKit/537.36 (KHTML, like Gecko) Version/4.0 Chrome/145.0.7632.159 Mobile Safari/537.36","379","674","240","","1649","<div class=""prompt"" style=""font-size:24px; margin-bottom:20px;"">Which word describes you more?</div>","0","pairing","8","decisive","humorous","PosPos","100","72","positive","positive","28","decisive","left","true"
"html-keyboard-response","18","85435","0.0-2.0-0.8","1015","23","pre","8","afternoon","2026-03-03","2026-03-15","2026-03-11T17:22:38.695Z","Mozilla/5.0 (Linux; Android 14; Pixel 4a (5G) Build/UP1A.231105.001.B2; wv) AppleWebKit/537.36 (KHTML, like Gecko) Version/4.0 Chrome/145.0.7632.159 Mobile Safari/537.36","379","674","240","","null","<div style=""font-size:60px;"">+</div>","null","fixation","","","","","","","","","","","",""
"html-button-response","19","87981","0.0-2.0-1.8","1015","23","pre","8","afternoon","2026-03-03","2026-03-15","2026-03-11T17:22:38.695Z","Mozilla/5.0 (Linux; Android 14; Pixel 4a (5G) Build/UP1A.231105.001.B2; wv) AppleWebKit/537.36 (KHTML, like Gecko) Version/4.0 Chrome/145.0.7632.159 Mobile Safari/537.36","379","674","240","","2542","<div class=""prompt"" style=""font-size:24px; margin-bottom:20px;"">Which word describes you more?</div>","1","pairing","9","alluring","thoughtful","PosPos","23","100","positive","positive","77","thoughtful","right","true"
"html-keyboard-response","20","88784","0.0-2.0-0.9","1015","23","pre","8","afternoon","2026-03-03","2026-03-15","2026-03-11T17:22:38.695Z","Mozilla/5.0 (Linux; Android 14; Pixel 4a (5G) Build/UP1A.231105.001.B2; wv) AppleWebKit/537.36 (KHTML, like Gecko) Version/4.0 Chrome/145.0.7632.159 Mobile Safari/537.36","379","674","240","","null","<div style=""font-size:60px;"">+</div>","null","fixation","","","","","","","","","","","",""
"html-button-response","21","93789","0.0-2.0-1.9","1015","23","pre","8","afternoon","2026-03-03","2026-03-15","2026-03-11T17:22:38.695Z","Mozilla/5.0 (Linux; Android 14; Pixel 4a (5G) Build/UP1A.231105.001.B2; wv) AppleWebKit/537.36 (KHTML, like Gecko) Version/4.0 Chrome/145.0.7632.159 Mobile Safari/537.36","379","674","240","","null","<div class=""prompt"" style=""font-size:24px; margin-bottom:20px;"">Which word describes you more?</div>","null","pairing","10","alluring","pleased","PosPos","23","78","positive","positive","55","null","null","false"
"html-keyboard-response","22","94593","0.0-2.0-0.10","1015","23","pre","8","afternoon","2026-03-03","2026-03-15","2026-03-11T17:22:38.695Z","Mozilla/5.0 (Linux; Android 14; Pixel 4a (5G) Build/UP1A.231105.001.B2; wv) AppleWebKit/537.36 (KHTML, like Gecko) Version/4.0 Chrome/145.0.7632.159 Mobile Safari/537.36","379","674","240","","null","<div style=""font-size:60px;"">+</div>","null","fixation","","","","","","","","","","","",""
"html-button-response","23","96231","0.0-2.0-1.10","1015","23","pre","8","afternoon","2026-03-03","2026-03-15","2026-03-11T17:22:38.695Z","Mozilla/5.0 (Linux; Android 14; Pixel 4a (5G) Build/UP1A.231105.001.B2; wv) AppleWebKit/537.36 (KHTML, like Gecko) Version/4.0 Chrome/145.0.7632.159 Mobile Safari/537.36","379","674","240","","1635","<div class=""prompt"" style=""font-size:24px; margin-bottom:20px;"">Which word describes you more?</div>","1","pairing","11","bitter","fun","PosNeg","0","16","negative","positive","16","fun","right","true"
"html-keyboard-response","24","97035","0.0-2.0-0.11","1015","23","pre","8","afternoon","2026-03-03","2026-03-15","2026-03-11T17:22:38.695Z","Mozilla/5.0 (Linux; Android 14; Pixel 4a (5G) Build/UP1A.231105.001.B2; wv) AppleWebKit/537.36 (KHTML, like Gecko) Version/4.0 Chrome/145.0.7632.159 Mobile Safari/537.36","379","674","240","","null","<div style=""font-size:60px;"">+</div>","null","fixation","","","","","","","","","","","",""
"html-button-response","25","98797","0.0-2.0-1.11","1015","23","pre","8","afternoon","2026-03-03","2026-03-15","2026-03-11T17:22:38.695Z","Mozilla/5.0 (Linux; Android 14; Pixel 4a (5G) Build/UP1A.231105.001.B2; wv) AppleWebKit/537.36 (KHTML, like Gecko) Version/4.0 Chrome/145.0.7632.159 Mobile Safari/537.36","379","674","240","","1759","<div class=""prompt"" style=""font-size:24px; margin-bottom:20px;"">Which word describes you more?</div>","1","pairing","12","witty","esteemed","PosPos","80","100","positive","positive","20","esteemed","right","true"
"html-keyboard-response","26","99601","0.0-2.0-0.12","1015","23","pre","8","afternoon","2026-03-03","2026-03-15","2026-03-11T17:22:38.695Z","Mozilla/5.0 (Linux; Android 14; Pixel 4a (5G) Build/UP1A.231105.001.B2; wv) AppleWebKit/537.36 (KHTML, like Gecko) Version/4.0 Chrome/145.0.7632.159 Mobile Safari/537.36","379","674","240","","null","<div style=""font-size:60px;"">+</div>","null","fixation","","","","","","","","","","","",""
"html-button-response","27","102620","0.0-2.0-1.12","1015","23","pre","8","afternoon","2026-03-03","2026-03-15","2026-03-11T17:22:38.695Z","Mozilla/5.0 (Linux; Android 14; Pixel 4a (5G) Build/UP1A.231105.001.B2; wv) AppleWebKit/537.36 (KHTML, like Gecko) Version/4.0 Chrome/145.0.7632.159 Mobile Safari/537.36","379","674","240","","3014","<div class=""prompt"" style=""font-size:24px; margin-bottom:20px;"">Which word describes you more?</div>","1","pairing","13","loser","anxious","NegNeg","0","15","negative","negative","15","anxious","right","true"
"html-keyboard-response","28","103423","0.0-2.0-0.13","1015","23","pre","8","afternoon","2026-03-03","2026-03-15","2026-03-11T17:22:38.695Z","Mozilla/5.0 (Linux; Android 14; Pixel 4a (5G) Build/UP1A.231105.001.B2; wv) AppleWebKit/537.36 (KHTML, like Gecko) Version/4.0 Chrome/145.0.7632.159 Mobile Safari/537.36","379","674","240","","null","<div style=""font-size:60px;"">+</div>","null","fixation","","","","","","","","","","","",""
"html-button-response","29","105129","0.0-2.0-1.13","1015","23","pre","8","afternoon","2026-03-03","2026-03-15","2026-03-11T17:22:38.695Z","Mozilla/5.0 (Linux; Android 14; Pixel 4a (5G) Build/UP1A.231105.001.B2; wv) AppleWebKit/537.36 (KHTML, like Gecko) Version/4.0 Chrome/145.0.7632.159 Mobile Safari/537.36","379","674","240","","1702","<div class=""prompt"" style=""font-size:24px; margin-bottom:20px;"">Which word describes you more?</div>","0","pairing","14","fun","liar","PosNeg","16","0","positive","negative","16","fun","left","true"
"html-keyboard-response","30","105933","0.0-2.0-0.14","1015","23","pre","8","afternoon","2026-03-03","2026-03-15","2026-03-11T17:22:38.695Z","Mozilla/5.0 (Linux; Android 14; Pixel 4a (5G) Build/UP1A.231105.001.B2; wv) AppleWebKit/537.36 (KHTML, like Gecko) Version/4.0 Chrome/145.0.7632.159 Mobile Safari/537.36","379","674","240","","null","<div style=""font-size:60px;"">+</div>","null","fixation","","","","","","","","","","","",""
"html-button-response","31","108945","0.0-2.0-1.14","1015","23","pre","8","afternoon","2026-03-03","2026-03-15","2026-03-11T17:22:38.695Z","Mozilla/5.0 (Linux; Android 14; Pixel 4a (5G) Build/UP1A.231105.001.B2; wv) AppleWebKit/537.36 (KHTML, like Gecko) Version/4.0 Chrome/145.0.7632.159 Mobile Safari/537.36","379","674","240","","3006","<div class=""prompt"" style=""font-size:24px; margin-bottom:20px;"">Which word describes you more?</div>","0","pairing","15","awkward","problematic","NegNeg","69","48","negative","negative","21","awkward","left","true"
"html-keyboard-response","32","109748","0.0-2.0-0.15","1015","23","pre","8","afternoon","2026-03-03","2026-03-15","2026-03-11T17:22:38.695Z","Mozilla/5.0 (Linux; Android 14; Pixel 4a (5G) Build/UP1A.231105.001.B2; wv) AppleWebKit/537.36 (KHTML, like Gecko) Version/4.0 Chrome/145.0.7632.159 Mobile Safari/537.36","379","674","240","","null","<div style=""font-size:60px;"">+</div>","null","fixation","","","","","","","","","","","",""
"html-button-response","33","113179","0.0-2.0-1.15","1015","23","pre","8","afternoon","2026-03-03","2026-03-15","2026-03-11T17:22:38.695Z","Mozilla/5.0 (Linux; Android 14; Pixel 4a (5G) Build/UP1A.231105.001.B2; wv) AppleWebKit/537.36 (KHTML, like Gecko) Version/4.0 Chrome/145.0.7632.159 Mobile Safari/537.36","379","674","240","","3429","<div class=""prompt"" style=""font-size:24px; margin-bottom:20px;"">Which word describes you more?</div>","1","pairing","16","outcast","spontaneous","PosNeg","91","51","negative","positive","40","spontaneous","right","true"
"html-keyboard-response","34","113982","0.0-2.0-0.16","1015","23","pre","8","afternoon","2026-03-03","2026-03-15","2026-03-11T17:22:38.695Z","Mozilla/5.0 (Linux; Android 14; Pixel 4a (5G) Build/UP1A.231105.001.B2; wv) AppleWebKit/537.36 (KHTML, like Gecko) Version/4.0 Chrome/145.0.7632.159 Mobile Safari/537.36","379","674","240","","null","<div style=""font-size:60px;"">+</div>","null","fixation","","","","","","","","","","","",""
"html-button-response","35","115972","0.0-2.0-1.16","1015","23","pre","8","afternoon","2026-03-03","2026-03-15","2026-03-11T17:22:38.695Z","Mozilla/5.0 (Linux; Android 14; Pixel 4a (5G) Build/UP1A.231105.001.B2; wv) AppleWebKit/537.36 (KHTML, like Gecko) Version/4.0 Chrome/145.0.7632.159 Mobile Safari/537.36","379","674","240","","1985","<div class=""prompt"" style=""font-size:24px; margin-bottom:20px;"">Which word describes you more?</div>","1","pairing","17","easygoing","outcast","PosNeg","49","91","positive","negative","42","outcast","right","true"
"html-keyboard-response","36","116775","0.0-2.0-0.17","1015","23","pre","8","afternoon","2026-03-03","2026-03-15","2026-03-11T17:22:38.695Z","Mozilla/5.0 (Linux; Android 14; Pixel 4a (5G) Build/UP1A.231105.001.B2; wv) AppleWebKit/537.36 (KHTML, like Gecko) Version/4.0 Chrome/145.0.7632.159 Mobile Safari/537.36","379","674","240","","null","<div style=""font-size:60px;"">+</div>","null","fixation","","","","","","","","","","","",""
"html-button-response","37","118558","0.0-2.0-1.17","1015","23","pre","8","afternoon","2026-03-03","2026-03-15","2026-03-11T17:22:38.695Z","Mozilla/5.0 (Linux; Android 14; Pixel 4a (5G) Build/UP1A.231105.001.B2; wv) AppleWebKit/537.36 (KHTML, like Gecko) Version/4.0 Chrome/145.0.7632.159 Mobile Safari/537.36","379","674","240","","1778","<div class=""prompt"" style=""font-size:24px; margin-bottom:20px;"">Which word describes you more?</div>","1","pairing","18","burden","outcast","NegNeg","0","91","negative","negative","91","outcast","right","true"
"html-keyboard-response","38","119361","0.0-2.0-0.18","1015","23","pre","8","afternoon","2026-03-03","2026-03-15","2026-03-11T17:22:38.695Z","Mozilla/5.0 (Linux; Android 14; Pixel 4a (5G) Build/UP1A.231105.001.B2; wv) AppleWebKit/537.36 (KHTML, like Gecko) Version/4.0 Chrome/145.0.7632.159 Mobile Safari/537.36","379","674","240","","null","<div style=""font-size:60px;"">+</div>","null","fixation","","","","","","","","","","","",""
"html-button-response","39","122757","0.0-2.0-1.18","1015","23","pre","8","afternoon","2026-03-03","2026-03-15","2026-03-11T17:22:38.695Z","Mozilla/5.0 (Linux; Android 14; Pixel 4a (5G) Build/UP1A.231105.001.B2; wv) AppleWebKit/537.36 (KHTML, like Gecko) Version/4.0 Chrome/145.0.7632.159 Mobile Safari/537.36","379","674","240","","3391","<div class=""prompt"" style=""font-size:24px; margin-bottom:20px;"">Which word describes you more?</div>","0","pairing","19","valued","awkward","PosNeg","0","69","positive","negative","69","valued","left","true"
"html-keyboard-response","40","123562","0.0-2.0-0.19","1015","23","pre","8","afternoon","2026-03-03","2026-03-15","2026-03-11T17:22:38.695Z","Mozilla/5.0 (Linux; Android 14; Pixel 4a (5G) Build/UP1A.231105.001.B2; wv) AppleWebKit/537.36 (KHTML, like Gecko) Version/4.0 Chrome/145.0.7632.159 Mobile Safari/537.36","379","674","240","","null","<div style=""font-size:60px;"">+</div>","null","fixation","","","","","","","","","","","",""
"html-button-response","41","126115","0.0-2.0-1.19","1015","23","pre","8","afternoon","2026-03-03","2026-03-15","2026-03-11T17:22:38.695Z","Mozilla/5.0 (Linux; Android 14; Pixel 4a (5G) Build/UP1A.231105.001.B2; wv) AppleWebKit/537.36 (KHTML, like Gecko) Version/4.0 Chrome/145.0.7632.159 Mobile Safari/537.36","379","674","240","","2551","<div class=""prompt"" style=""font-size:24px; margin-bottom:20px;"">Which word describes you more?</div>","1","pairing","20","unlucky","satisfied","PosNeg","64","49","negative","positive","15","satisfied","right","true"
"html-keyboard-response","42","126917","0.0-2.0-0.20","1015","23","pre","8","afternoon","2026-03-03","2026-03-15","2026-03-11T17:22:38.695Z","Mozilla/5.0 (Linux; Android 14; Pixel 4a (5G) Build/UP1A.231105.001.B2; wv) AppleWebKit/537.36 (KHTML, like Gecko) Version/4.0 Chrome/145.0.7632.159 Mobile Safari/537.36","379","674","240","","null","<div style=""font-size:60px;"">+</div>","null","fixation","","","","","","","","","","","",""
"html-button-response","43","129314","0.0-2.0-1.20","1015","23","pre","8","afternoon","2026-03-03","2026-03-15","2026-03-11T17:22:38.695Z","Mozilla/5.0 (Linux; Android 14; Pixel 4a (5G) Build/UP1A.231105.001.B2; wv) AppleWebKit/537.36 (KHTML, like Gecko) Version/4.0 Chrome/145.0.7632.159 Mobile Safari/537.36","379","674","240","","2394","<div class=""prompt"" style=""font-size:24px; margin-bottom:20px;"">Which word describes you more?</div>","0","pairing","21","awkward","violent","NegNeg","69","0","negative","negative","69","awkward","left","true"
"html-keyboard-response","44","130116","0.0-2.0-0.21","1015","23","pre","8","afternoon","2026-03-03","2026-03-15","2026-03-11T17:22:38.695Z","Mozilla/5.0 (Linux; Android 14; Pixel 4a (5G) Build/UP1A.231105.001.B2; wv) AppleWebKit/537.36 (KHTML, like Gecko) Version/4.0 Chrome/145.0.7632.159 Mobile Safari/537.36","379","674","240","","null","<div style=""font-size:60px;"">+</div>","null","fixation","","","","","","","","","","","",""
"html-button-response","45","134267","0.0-2.0-1.21","1015","23","pre","8","afternoon","2026-03-03","2026-03-15","2026-03-11T17:22:38.695Z","Mozilla/5.0 (Linux; Android 14; Pixel 4a (5G) Build/UP1A.231105.001.B2; wv) AppleWebKit/537.36 (KHTML, like Gecko) Version/4.0 Chrome/145.0.7632.159 Mobile Safari/537.36","379","674","240","","4148","<div class=""prompt"" style=""font-size:24px; margin-bottom:20px;"">Which word describes you more?</div>","1","pairing","22","disloyal","uninvited","NegNeg","0","50","negative","negative","50","uninvited","right","true"
"html-keyboard-response","46","135070","0.0-2.0-0.22","1015","23","pre","8","afternoon","2026-03-03","2026-03-15","2026-03-11T17:22:38.695Z","Mozilla/5.0 (Linux; Android 14; Pixel 4a (5G) Build/UP1A.231105.001.B2; wv) AppleWebKit/537.36 (KHTML, like Gecko) Version/4.0 Chrome/145.0.7632.159 Mobile Safari/537.36","379","674","240","","null","<div style=""font-size:60px;"">+</div>","null","fixation","","","","","","","","","","","",""
"html-button-response","47","137245","0.0-2.0-1.22","1015","23","pre","8","afternoon","2026-03-03","2026-03-15","2026-03-11T17:22:38.695Z","Mozilla/5.0 (Linux; Android 14; Pixel 4a (5G) Build/UP1A.231105.001.B2; wv) AppleWebKit/537.36 (KHTML, like Gecko) Version/4.0 Chrome/145.0.7632.159 Mobile Safari/537.36","379","674","240","","2173","<div class=""prompt"" style=""font-size:24px; margin-bottom:20px;"">Which word describes you more?</div>","0","pairing","23","unlucky","stingy","NegNeg","64","0","negative","negative","64","unlucky","left","true"
"html-keyboard-response","48","138047","0.0-2.0-0.23","1015","23","pre","8","afternoon","2026-03-03","2026-03-15","2026-03-11T17:22:38.695Z","Mozilla/5.0 (Linux; Android 14; Pixel 4a (5G) Build/UP1A.231105.001.B2; wv) AppleWebKit/537.36 (KHTML, like Gecko) Version/4.0 Chrome/145.0.7632.159 Mobile Safari/537.36","379","674","240","","null","<div style=""font-size:60px;"">+</div>","null","fixation","","","","","","","","","","","",""
"html-button-response","49","139868","0.0-2.0-1.23","1015","23","pre","8","afternoon","2026-03-03","2026-03-15","2026-03-11T17:22:38.695Z","Mozilla/5.0 (Linux; Android 14; Pixel 4a (5G) Build/UP1A.231105.001.B2; wv) AppleWebKit/537.36 (KHTML, like Gecko) Version/4.0 Chrome/145.0.7632.159 Mobile Safari/537.36","379","674","240","","1817","<div class=""prompt"" style=""font-size:24px; margin-bottom:20px;"">Which word describes you more?</div>","1","pairing","24","menace","proficient","PosNeg","0","100","negative","positive","100","proficient","right","true"
"instructions","50","141391","0.0-3.0","1015","23","pre","8","afternoon","2026-03-03","2026-03-15","2026-03-11T17:22:38.695Z","Mozilla/5.0 (Linux; Android 14; Pixel 4a (5G) Build/UP1A.231105.001.B2; wv) AppleWebKit/537.36 (KHTML, like Gecko) Version/4.0 Chrome/145.0.7632.159 Mobile Safari/537.36","379","674","240","[{""page_index"":0,""viewing_time"":1519}]","1520","","","","","","","","","","","","","","",""
