"trial_type","trial_index","time_elapsed","internal_node_id","PUNS_ID","session_number","session_phase","session_day","session_slot","ema_start_date","ema_post_start_date","experiment_start","browser","screen_width","screen_height","timezone_offset","view_history","rt","stimulus","response","which_experiment_phase","trial_number","left_word","right_word","valence","left_base_rating","right_base_rating","left_valence","right_valence","abs_diff","participant_response","chosen_side","valid_response"
"pavlovia","0","8104","0.0-0.0","1060","23","pre","8","afternoon","2026-04-15","2026-04-28","2026-04-22T16:42:00.381Z","Mozilla/5.0 (iPhone; CPU iPhone OS 18_7 like Mac OS X) AppleWebKit/605.1.15 (KHTML, like Gecko) Mobile/15E148","358","632","240","","","","","","","","","","","","","","","","",""
"instructions","1","22758","0.0-1.0","1060","23","pre","8","afternoon","2026-04-15","2026-04-28","2026-04-22T16:42:00.381Z","Mozilla/5.0 (iPhone; CPU iPhone OS 18_7 like Mac OS X) AppleWebKit/605.1.15 (KHTML, like Gecko) Mobile/15E148","358","632","240","[{""page_index"":0,""viewing_time"":8010},{""page_index"":1,""viewing_time"":536},{""page_index"":2,""viewing_time"":3406},{""page_index"":3,""viewing_time"":2692}]","14646","","","","","","","","","","","","","","",""
"html-keyboard-response","2","23562","0.0-2.0-0.0","1060","23","pre","8","afternoon","2026-04-15","2026-04-28","2026-04-22T16:42:00.381Z","Mozilla/5.0 (iPhone; CPU iPhone OS 18_7 like Mac OS X) AppleWebKit/605.1.15 (KHTML, like Gecko) Mobile/15E148","358","632","240","","null","<div style=""font-size:60px;"">+</div>","null","fixation","","","","","","","","","","","",""
"html-button-response","3","26886","0.0-2.0-1.0","1060","23","pre","8","afternoon","2026-04-15","2026-04-28","2026-04-22T16:42:00.381Z","Mozilla/5.0 (iPhone; CPU iPhone OS 18_7 like Mac OS X) AppleWebKit/605.1.15 (KHTML, like Gecko) Mobile/15E148","358","632","240","","3314","<div class=""prompt"" style=""font-size:24px; margin-bottom:20px;"">Which word describes you more?</div>","1","pairing","1","insecure","credible","PosNeg","60","88","negative","positive","28","credible","right","true"
"html-keyboard-response","4","27688","0.0-2.0-0.1","1060","23","pre","8","afternoon","2026-04-15","2026-04-28","2026-04-22T16:42:00.381Z","Mozilla/5.0 (iPhone; CPU iPhone OS 18_7 like Mac OS X) AppleWebKit/605.1.15 (KHTML, like Gecko) Mobile/15E148","358","632","240","","null","<div style=""font-size:60px;"">+</div>","null","fixation","","","","","","","","","","","",""
"html-button-response","5","28591","0.0-2.0-1.1","1060","23","pre","8","afternoon","2026-04-15","2026-04-28","2026-04-22T16:42:00.381Z","Mozilla/5.0 (iPhone; CPU iPhone OS 18_7 like Mac OS X) AppleWebKit/605.1.15 (KHTML, like Gecko) Mobile/15E148","358","632","240","","898","<div class=""prompt"" style=""font-size:24px; margin-bottom:20px;"">Which word describes you more?</div>","1","pairing","2","carefree","friend","PosPos","69","89","positive","positive","20","friend","right","true"
"html-keyboard-response","6","29394","0.0-2.0-0.2","1060","23","pre","8","afternoon","2026-04-15","2026-04-28","2026-04-22T16:42:00.381Z","Mozilla/5.0 (iPhone; CPU iPhone OS 18_7 like Mac OS X) AppleWebKit/605.1.15 (KHTML, like Gecko) Mobile/15E148","358","632","240","","null","<div style=""font-size:60px;"">+</div>","null","fixation","","","","","","","","","","","",""
"html-button-response","7","31397","0.0-2.0-1.2","1060","23","pre","8","afternoon","2026-04-15","2026-04-28","2026-04-22T16:42:00.381Z","Mozilla/5.0 (iPhone; CPU iPhone OS 18_7 like Mac OS X) AppleWebKit/605.1.15 (KHTML, like Gecko) Mobile/15E148","358","632","240","","2001","<div class=""prompt"" style=""font-size:24px; margin-bottom:20px;"">Which word describes you more?</div>","1","pairing","3","hesitant","brave","PosNeg","68","28","negative","positive","40","brave","right","true"
"html-keyboard-response","8","32200","0.0-2.0-0.3","1060","23","pre","8","afternoon","2026-04-15","2026-04-28","2026-04-22T16:42:00.381Z","Mozilla/5.0 (iPhone; CPU iPhone OS 18_7 like Mac OS X) AppleWebKit/605.1.15 (KHTML, like Gecko) Mobile/15E148","358","632","240","","null","<div style=""font-size:60px;"">+</div>","null","fixation","","","","","","","","","","","",""
"html-button-response","9","33220","0.0-2.0-1.3","1060","23","pre","8","afternoon","2026-04-15","2026-04-28","2026-04-22T16:42:00.381Z","Mozilla/5.0 (iPhone; CPU iPhone OS 18_7 like Mac OS X) AppleWebKit/605.1.15 (KHTML, like Gecko) Mobile/15E148","358","632","240","","1018","<div class=""prompt"" style=""font-size:24px; margin-bottom:20px;"">Which word describes you more?</div>","0","pairing","4","stingy","liar","NegNeg","74","1","negative","negative","73","stingy","left","true"
"html-keyboard-response","10","34023","0.0-2.0-0.4","1060","23","pre","8","afternoon","2026-04-15","2026-04-28","2026-04-22T16:42:00.381Z","Mozilla/5.0 (iPhone; CPU iPhone OS 18_7 like Mac OS X) AppleWebKit/605.1.15 (KHTML, like Gecko) Mobile/15E148","358","632","240","","null","<div style=""font-size:60px;"">+</div>","null","fixation","","","","","","","","","","","",""
"html-button-response","11","35466","0.0-2.0-1.4","1060","23","pre","8","afternoon","2026-04-15","2026-04-28","2026-04-22T16:42:00.381Z","Mozilla/5.0 (iPhone; CPU iPhone OS 18_7 like Mac OS X) AppleWebKit/605.1.15 (KHTML, like Gecko) Mobile/15E148","358","632","240","","1441","<div class=""prompt"" style=""font-size:24px; margin-bottom:20px;"">Which word describes you more?</div>","0","pairing","5","devoted","peaceful","PosPos","51","86","positive","positive","35","devoted","left","true"
"html-keyboard-response","12","36270","0.0-2.0-0.5","1060","23","pre","8","afternoon","2026-04-15","2026-04-28","2026-04-22T16:42:00.381Z","Mozilla/5.0 (iPhone; CPU iPhone OS 18_7 like Mac OS X) AppleWebKit/605.1.15 (KHTML, like Gecko) Mobile/15E148","358","632","240","","null","<div style=""font-size:60px;"">+</div>","null","fixation","","","","","","","","","","","",""
"html-button-response","13","37854","0.0-2.0-1.5","1060","23","pre","8","afternoon","2026-04-15","2026-04-28","2026-04-22T16:42:00.381Z","Mozilla/5.0 (iPhone; CPU iPhone OS 18_7 like Mac OS X) AppleWebKit/605.1.15 (KHTML, like Gecko) Mobile/15E148","358","632","240","","1581","<div class=""prompt"" style=""font-size:24px; margin-bottom:20px;"">Which word describes you more?</div>","0","pairing","6","authentic","fool","PosNeg","80","68","positive","negative","12","authentic","left","true"
"html-keyboard-response","14","38656","0.0-2.0-0.6","1060","23","pre","8","afternoon","2026-04-15","2026-04-28","2026-04-22T16:42:00.381Z","Mozilla/5.0 (iPhone; CPU iPhone OS 18_7 like Mac OS X) AppleWebKit/605.1.15 (KHTML, like Gecko) Mobile/15E148","358","632","240","","null","<div style=""font-size:60px;"">+</div>","null","fixation","","","","","","","","","","","",""
"html-button-response","15","40068","0.0-2.0-1.6","1060","23","pre","8","afternoon","2026-04-15","2026-04-28","2026-04-22T16:42:00.381Z","Mozilla/5.0 (iPhone; CPU iPhone OS 18_7 like Mac OS X) AppleWebKit/605.1.15 (KHTML, like Gecko) Mobile/15E148","358","632","240","","1400","<div class=""prompt"" style=""font-size:24px; margin-bottom:20px;"">Which word describes you more?</div>","1","pairing","7","incompetent","reliable","PosNeg","5","88","negative","positive","83","reliable","right","true"
"html-keyboard-response","16","40871","0.0-2.0-0.7","1060","23","pre","8","afternoon","2026-04-15","2026-04-28","2026-04-22T16:42:00.381Z","Mozilla/5.0 (iPhone; CPU iPhone OS 18_7 like Mac OS X) AppleWebKit/605.1.15 (KHTML, like Gecko) Mobile/15E148","358","632","240","","null","<div style=""font-size:60px;"">+</div>","null","fixation","","","","","","","","","","","",""
"html-button-response","17","42173","0.0-2.0-1.7","1060","23","pre","8","afternoon","2026-04-15","2026-04-28","2026-04-22T16:42:00.381Z","Mozilla/5.0 (iPhone; CPU iPhone OS 18_7 like Mac OS X) AppleWebKit/605.1.15 (KHTML, like Gecko) Mobile/15E148","358","632","240","","1300","<div class=""prompt"" style=""font-size:24px; margin-bottom:20px;"">Which word describes you more?</div>","1","pairing","8","insecure","eloquent","PosNeg","60","49","negative","positive","11","eloquent","right","true"
"html-keyboard-response","18","42976","0.0-2.0-0.8","1060","23","pre","8","afternoon","2026-04-15","2026-04-28","2026-04-22T16:42:00.381Z","Mozilla/5.0 (iPhone; CPU iPhone OS 18_7 like Mac OS X) AppleWebKit/605.1.15 (KHTML, like Gecko) Mobile/15E148","358","632","240","","null","<div style=""font-size:60px;"">+</div>","null","fixation","","","","","","","","","","","",""
"html-button-response","19","44414","0.0-2.0-1.8","1060","23","pre","8","afternoon","2026-04-15","2026-04-28","2026-04-22T16:42:00.381Z","Mozilla/5.0 (iPhone; CPU iPhone OS 18_7 like Mac OS X) AppleWebKit/605.1.15 (KHTML, like Gecko) Mobile/15E148","358","632","240","","1436","<div class=""prompt"" style=""font-size:24px; margin-bottom:20px;"">Which word describes you more?</div>","0","pairing","9","eloquent","vermin","PosNeg","49","50","positive","negative","1","eloquent","left","true"
"html-keyboard-response","20","45216","0.0-2.0-0.9","1060","23","pre","8","afternoon","2026-04-15","2026-04-28","2026-04-22T16:42:00.381Z","Mozilla/5.0 (iPhone; CPU iPhone OS 18_7 like Mac OS X) AppleWebKit/605.1.15 (KHTML, like Gecko) Mobile/15E148","358","632","240","","null","<div style=""font-size:60px;"">+</div>","null","fixation","","","","","","","","","","","",""
"html-button-response","21","47693","0.0-2.0-1.9","1060","23","pre","8","afternoon","2026-04-15","2026-04-28","2026-04-22T16:42:00.381Z","Mozilla/5.0 (iPhone; CPU iPhone OS 18_7 like Mac OS X) AppleWebKit/605.1.15 (KHTML, like Gecko) Mobile/15E148","358","632","240","","2475","<div class=""prompt"" style=""font-size:24px; margin-bottom:20px;"">Which word describes you more?</div>","0","pairing","10","flawless","unforgivable","PosNeg","4","49","positive","negative","45","flawless","left","true"
"html-keyboard-response","22","48496","0.0-2.0-0.10","1060","23","pre","8","afternoon","2026-04-15","2026-04-28","2026-04-22T16:42:00.381Z","Mozilla/5.0 (iPhone; CPU iPhone OS 18_7 like Mac OS X) AppleWebKit/605.1.15 (KHTML, like Gecko) Mobile/15E148","358","632","240","","null","<div style=""font-size:60px;"">+</div>","null","fixation","","","","","","","","","","","",""
"html-button-response","23","50416","0.0-2.0-1.10","1060","23","pre","8","afternoon","2026-04-15","2026-04-28","2026-04-22T16:42:00.381Z","Mozilla/5.0 (iPhone; CPU iPhone OS 18_7 like Mac OS X) AppleWebKit/605.1.15 (KHTML, like Gecko) Mobile/15E148","358","632","240","","1918","<div class=""prompt"" style=""font-size:24px; margin-bottom:20px;"">Which word describes you more?</div>","1","pairing","11","disastrous","visionary","PosNeg","0","62","negative","positive","62","visionary","right","true"
"html-keyboard-response","24","51220","0.0-2.0-0.11","1060","23","pre","8","afternoon","2026-04-15","2026-04-28","2026-04-22T16:42:00.381Z","Mozilla/5.0 (iPhone; CPU iPhone OS 18_7 like Mac OS X) AppleWebKit/605.1.15 (KHTML, like Gecko) Mobile/15E148","358","632","240","","null","<div style=""font-size:60px;"">+</div>","null","fixation","","","","","","","","","","","",""
"html-button-response","25","52857","0.0-2.0-1.11","1060","23","pre","8","afternoon","2026-04-15","2026-04-28","2026-04-22T16:42:00.381Z","Mozilla/5.0 (iPhone; CPU iPhone OS 18_7 like Mac OS X) AppleWebKit/605.1.15 (KHTML, like Gecko) Mobile/15E148","358","632","240","","1635","<div class=""prompt"" style=""font-size:24px; margin-bottom:20px;"">Which word describes you more?</div>","0","pairing","12","achiever","eloquent","PosPos","92","49","positive","positive","43","achiever","left","true"
"html-keyboard-response","26","53660","0.0-2.0-0.12","1060","23","pre","8","afternoon","2026-04-15","2026-04-28","2026-04-22T16:42:00.381Z","Mozilla/5.0 (iPhone; CPU iPhone OS 18_7 like Mac OS X) AppleWebKit/605.1.15 (KHTML, like Gecko) Mobile/15E148","358","632","240","","null","<div style=""font-size:60px;"">+</div>","null","fixation","","","","","","","","","","","",""
"html-button-response","27","55098","0.0-2.0-1.12","1060","23","pre","8","afternoon","2026-04-15","2026-04-28","2026-04-22T16:42:00.381Z","Mozilla/5.0 (iPhone; CPU iPhone OS 18_7 like Mac OS X) AppleWebKit/605.1.15 (KHTML, like Gecko) Mobile/15E148","358","632","240","","1436","<div class=""prompt"" style=""font-size:24px; margin-bottom:20px;"">Which word describes you more?</div>","1","pairing","13","terrible","humorous","PosNeg","0","89","negative","positive","89","humorous","right","true"
"html-keyboard-response","28","55900","0.0-2.0-0.13","1060","23","pre","8","afternoon","2026-04-15","2026-04-28","2026-04-22T16:42:00.381Z","Mozilla/5.0 (iPhone; CPU iPhone OS 18_7 like Mac OS X) AppleWebKit/605.1.15 (KHTML, like Gecko) Mobile/15E148","358","632","240","","null","<div style=""font-size:60px;"">+</div>","null","fixation","","","","","","","","","","","",""
"html-button-response","29","57424","0.0-2.0-1.13","1060","23","pre","8","afternoon","2026-04-15","2026-04-28","2026-04-22T16:42:00.381Z","Mozilla/5.0 (iPhone; CPU iPhone OS 18_7 like Mac OS X) AppleWebKit/605.1.15 (KHTML, like Gecko) Mobile/15E148","358","632","240","","1521","<div class=""prompt"" style=""font-size:24px; margin-bottom:20px;"">Which word describes you more?</div>","0","pairing","14","cooperative","decisive","PosPos","95","18","positive","positive","77","cooperative","left","true"
"html-keyboard-response","30","58227","0.0-2.0-0.14","1060","23","pre","8","afternoon","2026-04-15","2026-04-28","2026-04-22T16:42:00.381Z","Mozilla/5.0 (iPhone; CPU iPhone OS 18_7 like Mac OS X) AppleWebKit/605.1.15 (KHTML, like Gecko) Mobile/15E148","358","632","240","","null","<div style=""font-size:60px;"">+</div>","null","fixation","","","","","","","","","","","",""
"html-button-response","31","60069","0.0-2.0-1.14","1060","23","pre","8","afternoon","2026-04-15","2026-04-28","2026-04-22T16:42:00.381Z","Mozilla/5.0 (iPhone; CPU iPhone OS 18_7 like Mac OS X) AppleWebKit/605.1.15 (KHTML, like Gecko) Mobile/15E148","358","632","240","","1840","<div class=""prompt"" style=""font-size:24px; margin-bottom:20px;"">Which word describes you more?</div>","0","pairing","15","fool","deceitful","NegNeg","68","3","negative","negative","65","fool","left","true"
"html-keyboard-response","32","60872","0.0-2.0-0.15","1060","23","pre","8","afternoon","2026-04-15","2026-04-28","2026-04-22T16:42:00.381Z","Mozilla/5.0 (iPhone; CPU iPhone OS 18_7 like Mac OS X) AppleWebKit/605.1.15 (KHTML, like Gecko) Mobile/15E148","358","632","240","","null","<div style=""font-size:60px;"">+</div>","null","fixation","","","","","","","","","","","",""
"html-button-response","33","62291","0.0-2.0-1.15","1060","23","pre","8","afternoon","2026-04-15","2026-04-28","2026-04-22T16:42:00.381Z","Mozilla/5.0 (iPhone; CPU iPhone OS 18_7 like Mac OS X) AppleWebKit/605.1.15 (KHTML, like Gecko) Mobile/15E148","358","632","240","","1416","<div class=""prompt"" style=""font-size:24px; margin-bottom:20px;"">Which word describes you more?</div>","1","pairing","16","helper","gentle","PosPos","76","74","positive","positive","2","gentle","right","true"
"html-keyboard-response","34","63095","0.0-2.0-0.16","1060","23","pre","8","afternoon","2026-04-15","2026-04-28","2026-04-22T16:42:00.381Z","Mozilla/5.0 (iPhone; CPU iPhone OS 18_7 like Mac OS X) AppleWebKit/605.1.15 (KHTML, like Gecko) Mobile/15E148","358","632","240","","null","<div style=""font-size:60px;"">+</div>","null","fixation","","","","","","","","","","","",""
"html-button-response","35","66874","0.0-2.0-1.16","1060","23","pre","8","afternoon","2026-04-15","2026-04-28","2026-04-22T16:42:00.381Z","Mozilla/5.0 (iPhone; CPU iPhone OS 18_7 like Mac OS X) AppleWebKit/605.1.15 (KHTML, like Gecko) Mobile/15E148","358","632","240","","3777","<div class=""prompt"" style=""font-size:24px; margin-bottom:20px;"">Which word describes you more?</div>","0","pairing","17","uninvited","fraud","NegNeg","5","3","negative","negative","2","uninvited","left","true"
"html-keyboard-response","36","67680","0.0-2.0-0.17","1060","23","pre","8","afternoon","2026-04-15","2026-04-28","2026-04-22T16:42:00.381Z","Mozilla/5.0 (iPhone; CPU iPhone OS 18_7 like Mac OS X) AppleWebKit/605.1.15 (KHTML, like Gecko) Mobile/15E148","358","632","240","","null","<div style=""font-size:60px;"">+</div>","null","fixation","","","","","","","","","","","",""
"html-button-response","37","69455","0.0-2.0-1.17","1060","23","pre","8","afternoon","2026-04-15","2026-04-28","2026-04-22T16:42:00.381Z","Mozilla/5.0 (iPhone; CPU iPhone OS 18_7 like Mac OS X) AppleWebKit/605.1.15 (KHTML, like Gecko) Mobile/15E148","358","632","240","","1772","<div class=""prompt"" style=""font-size:24px; margin-bottom:20px;"">Which word describes you more?</div>","1","pairing","18","flawless","courteous","PosPos","4","93","positive","positive","89","courteous","right","true"
"html-keyboard-response","38","70258","0.0-2.0-0.18","1060","23","pre","8","afternoon","2026-04-15","2026-04-28","2026-04-22T16:42:00.381Z","Mozilla/5.0 (iPhone; CPU iPhone OS 18_7 like Mac OS X) AppleWebKit/605.1.15 (KHTML, like Gecko) Mobile/15E148","358","632","240","","null","<div style=""font-size:60px;"">+</div>","null","fixation","","","","","","","","","","","",""
"html-button-response","39","72194","0.0-2.0-1.18","1060","23","pre","8","afternoon","2026-04-15","2026-04-28","2026-04-22T16:42:00.381Z","Mozilla/5.0 (iPhone; CPU iPhone OS 18_7 like Mac OS X) AppleWebKit/605.1.15 (KHTML, like Gecko) Mobile/15E148","358","632","240","","1932","<div class=""prompt"" style=""font-size:24px; margin-bottom:20px;"">Which word describes you more?</div>","1","pairing","19","liar","dull","NegNeg","1","9","negative","negative","8","dull","right","true"
"html-keyboard-response","40","72997","0.0-2.0-0.19","1060","23","pre","8","afternoon","2026-04-15","2026-04-28","2026-04-22T16:42:00.381Z","Mozilla/5.0 (iPhone; CPU iPhone OS 18_7 like Mac OS X) AppleWebKit/605.1.15 (KHTML, like Gecko) Mobile/15E148","358","632","240","","null","<div style=""font-size:60px;"">+</div>","null","fixation","","","","","","","","","","","",""
"html-button-response","41","75366","0.0-2.0-1.19","1060","23","pre","8","afternoon","2026-04-15","2026-04-28","2026-04-22T16:42:00.381Z","Mozilla/5.0 (iPhone; CPU iPhone OS 18_7 like Mac OS X) AppleWebKit/605.1.15 (KHTML, like Gecko) Mobile/15E148","358","632","240","","2363","<div class=""prompt"" style=""font-size:24px; margin-bottom:20px;"">Which word describes you more?</div>","1","pairing","20","quitter","fool","NegNeg","8","68","negative","negative","60","fool","right","true"
"html-keyboard-response","42","76179","0.0-2.0-0.20","1060","23","pre","8","afternoon","2026-04-15","2026-04-28","2026-04-22T16:42:00.381Z","Mozilla/5.0 (iPhone; CPU iPhone OS 18_7 like Mac OS X) AppleWebKit/605.1.15 (KHTML, like Gecko) Mobile/15E148","358","632","240","","null","<div style=""font-size:60px;"">+</div>","null","fixation","","","","","","","","","","","",""
"html-button-response","43","78232","0.0-2.0-1.20","1060","23","pre","8","afternoon","2026-04-15","2026-04-28","2026-04-22T16:42:00.381Z","Mozilla/5.0 (iPhone; CPU iPhone OS 18_7 like Mac OS X) AppleWebKit/605.1.15 (KHTML, like Gecko) Mobile/15E148","358","632","240","","2048","<div class=""prompt"" style=""font-size:24px; margin-bottom:20px;"">Which word describes you more?</div>","0","pairing","21","resourceful","awkward","PosNeg","70","9","positive","negative","61","resourceful","left","true"
"html-keyboard-response","44","79034","0.0-2.0-0.21","1060","23","pre","8","afternoon","2026-04-15","2026-04-28","2026-04-22T16:42:00.381Z","Mozilla/5.0 (iPhone; CPU iPhone OS 18_7 like Mac OS X) AppleWebKit/605.1.15 (KHTML, like Gecko) Mobile/15E148","358","632","240","","null","<div style=""font-size:60px;"">+</div>","null","fixation","","","","","","","","","","","",""
"html-button-response","45","80392","0.0-2.0-1.21","1060","23","pre","8","afternoon","2026-04-15","2026-04-28","2026-04-22T16:42:00.381Z","Mozilla/5.0 (iPhone; CPU iPhone OS 18_7 like Mac OS X) AppleWebKit/605.1.15 (KHTML, like Gecko) Mobile/15E148","358","632","240","","1353","<div class=""prompt"" style=""font-size:24px; margin-bottom:20px;"">Which word describes you more?</div>","0","pairing","22","spirited","violent","PosNeg","92","0","positive","negative","92","spirited","left","true"
"html-keyboard-response","46","81194","0.0-2.0-0.22","1060","23","pre","8","afternoon","2026-04-15","2026-04-28","2026-04-22T16:42:00.381Z","Mozilla/5.0 (iPhone; CPU iPhone OS 18_7 like Mac OS X) AppleWebKit/605.1.15 (KHTML, like Gecko) Mobile/15E148","358","632","240","","null","<div style=""font-size:60px;"">+</div>","null","fixation","","","","","","","","","","","",""
"html-button-response","47","82331","0.0-2.0-1.22","1060","23","pre","8","afternoon","2026-04-15","2026-04-28","2026-04-22T16:42:00.381Z","Mozilla/5.0 (iPhone; CPU iPhone OS 18_7 like Mac OS X) AppleWebKit/605.1.15 (KHTML, like Gecko) Mobile/15E148","358","632","240","","1132","<div class=""prompt"" style=""font-size:24px; margin-bottom:20px;"">Which word describes you more?</div>","1","pairing","23","flawless","stingy","PosNeg","4","74","positive","negative","70","stingy","right","true"
"html-keyboard-response","48","83133","0.0-2.0-0.23","1060","23","pre","8","afternoon","2026-04-15","2026-04-28","2026-04-22T16:42:00.381Z","Mozilla/5.0 (iPhone; CPU iPhone OS 18_7 like Mac OS X) AppleWebKit/605.1.15 (KHTML, like Gecko) Mobile/15E148","358","632","240","","null","<div style=""font-size:60px;"">+</div>","null","fixation","","","","","","","","","","","",""
"html-button-response","49","85012","0.0-2.0-1.23","1060","23","pre","8","afternoon","2026-04-15","2026-04-28","2026-04-22T16:42:00.381Z","Mozilla/5.0 (iPhone; CPU iPhone OS 18_7 like Mac OS X) AppleWebKit/605.1.15 (KHTML, like Gecko) Mobile/15E148","358","632","240","","1867","<div class=""prompt"" style=""font-size:24px; margin-bottom:20px;"">Which word describes you more?</div>","1","pairing","24","shameful","stingy","NegNeg","2","74","negative","negative","72","stingy","right","true"
"instructions","50","85892","0.0-3.0","1060","23","pre","8","afternoon","2026-04-15","2026-04-28","2026-04-22T16:42:00.381Z","Mozilla/5.0 (iPhone; CPU iPhone OS 18_7 like Mac OS X) AppleWebKit/605.1.15 (KHTML, like Gecko) Mobile/15E148","358","632","240","[{""page_index"":0,""viewing_time"":874}]","874","","","","","","","","","","","","","","",""
