"trial_type","trial_index","time_elapsed","internal_node_id","PUNS_ID","session_number","session_phase","session_day","session_slot","ema_start_date","ema_post_start_date","experiment_start","browser","screen_width","screen_height","timezone_offset","view_history","rt","stimulus","response","which_experiment_phase","trial_number","left_word","right_word","valence","left_base_rating","right_base_rating","left_valence","right_valence","abs_diff","participant_response","chosen_side","valid_response"
"pavlovia","0","1959","0.0-0.0","1027","54","post","8","evening","2026-03-23","2026-04-04","2026-04-12T03:40:17.261Z","Mozilla/5.0 (iPhone; CPU iPhone OS 18_6_2 like Mac OS X) AppleWebKit/605.1.15 (KHTML, like Gecko) Mobile/15E148","398","708","420","","","","","","","","","","","","","","","","",""
"instructions","1","4336","0.0-1.0","1027","54","post","8","evening","2026-03-23","2026-04-04","2026-04-12T03:40:17.261Z","Mozilla/5.0 (iPhone; CPU iPhone OS 18_6_2 like Mac OS X) AppleWebKit/605.1.15 (KHTML, like Gecko) Mobile/15E148","398","708","420","[{""page_index"":0,""viewing_time"":634},{""page_index"":1,""viewing_time"":498},{""page_index"":2,""viewing_time"":643},{""page_index"":3,""viewing_time"":598}]","2374","","","","","","","","","","","","","","",""
"html-keyboard-response","2","5139","0.0-2.0-0.0","1027","54","post","8","evening","2026-03-23","2026-04-04","2026-04-12T03:40:17.261Z","Mozilla/5.0 (iPhone; CPU iPhone OS 18_6_2 like Mac OS X) AppleWebKit/605.1.15 (KHTML, like Gecko) Mobile/15E148","398","708","420","","null","<div style=""font-size:60px;"">+</div>","null","fixation","","","","","","","","","","","",""
"html-button-response","3","6681","0.0-2.0-1.0","1027","54","post","8","evening","2026-03-23","2026-04-04","2026-04-12T03:40:17.261Z","Mozilla/5.0 (iPhone; CPU iPhone OS 18_6_2 like Mac OS X) AppleWebKit/605.1.15 (KHTML, like Gecko) Mobile/15E148","398","708","420","","1539","<div class=""prompt"" style=""font-size:24px; margin-bottom:20px;"">Which word describes you more?</div>","0","pairing","1","authentic","healthy","PosPos","92","39","positive","positive","53","authentic","left","true"
"html-keyboard-response","4","7484","0.0-2.0-0.1","1027","54","post","8","evening","2026-03-23","2026-04-04","2026-04-12T03:40:17.261Z","Mozilla/5.0 (iPhone; CPU iPhone OS 18_6_2 like Mac OS X) AppleWebKit/605.1.15 (KHTML, like Gecko) Mobile/15E148","398","708","420","","null","<div style=""font-size:60px;"">+</div>","null","fixation","","","","","","","","","","","",""
"html-button-response","5","8771","0.0-2.0-1.1","1027","54","post","8","evening","2026-03-23","2026-04-04","2026-04-12T03:40:17.261Z","Mozilla/5.0 (iPhone; CPU iPhone OS 18_6_2 like Mac OS X) AppleWebKit/605.1.15 (KHTML, like Gecko) Mobile/15E148","398","708","420","","1285","<div class=""prompt"" style=""font-size:24px; margin-bottom:20px;"">Which word describes you more?</div>","1","pairing","2","pest","graceful","PosNeg","6","69","negative","positive","63","graceful","right","true"
"html-keyboard-response","6","9574","0.0-2.0-0.2","1027","54","post","8","evening","2026-03-23","2026-04-04","2026-04-12T03:40:17.261Z","Mozilla/5.0 (iPhone; CPU iPhone OS 18_6_2 like Mac OS X) AppleWebKit/605.1.15 (KHTML, like Gecko) Mobile/15E148","398","708","420","","null","<div style=""font-size:60px;"">+</div>","null","fixation","","","","","","","","","","","",""
"html-button-response","7","11631","0.0-2.0-1.2","1027","54","post","8","evening","2026-03-23","2026-04-04","2026-04-12T03:40:17.261Z","Mozilla/5.0 (iPhone; CPU iPhone OS 18_6_2 like Mac OS X) AppleWebKit/605.1.15 (KHTML, like Gecko) Mobile/15E148","398","708","420","","2055","<div class=""prompt"" style=""font-size:24px; margin-bottom:20px;"">Which word describes you more?</div>","0","pairing","3","boring","untrustworthy","NegNeg","31","0","negative","negative","31","boring","left","true"
"html-keyboard-response","8","12433","0.0-2.0-0.3","1027","54","post","8","evening","2026-03-23","2026-04-04","2026-04-12T03:40:17.261Z","Mozilla/5.0 (iPhone; CPU iPhone OS 18_6_2 like Mac OS X) AppleWebKit/605.1.15 (KHTML, like Gecko) Mobile/15E148","398","708","420","","null","<div style=""font-size:60px;"">+</div>","null","fixation","","","","","","","","","","","",""
"html-button-response","9","14022","0.0-2.0-1.3","1027","54","post","8","evening","2026-03-23","2026-04-04","2026-04-12T03:40:17.261Z","Mozilla/5.0 (iPhone; CPU iPhone OS 18_6_2 like Mac OS X) AppleWebKit/605.1.15 (KHTML, like Gecko) Mobile/15E148","398","708","420","","1587","<div class=""prompt"" style=""font-size:24px; margin-bottom:20px;"">Which word describes you more?</div>","1","pairing","4","repulsive","virtuous","PosNeg","0","80","negative","positive","80","virtuous","right","true"
"html-keyboard-response","10","14825","0.0-2.0-0.4","1027","54","post","8","evening","2026-03-23","2026-04-04","2026-04-12T03:40:17.261Z","Mozilla/5.0 (iPhone; CPU iPhone OS 18_6_2 like Mac OS X) AppleWebKit/605.1.15 (KHTML, like Gecko) Mobile/15E148","398","708","420","","null","<div style=""font-size:60px;"">+</div>","null","fixation","","","","","","","","","","","",""
"html-button-response","11","16515","0.0-2.0-1.4","1027","54","post","8","evening","2026-03-23","2026-04-04","2026-04-12T03:40:17.261Z","Mozilla/5.0 (iPhone; CPU iPhone OS 18_6_2 like Mac OS X) AppleWebKit/605.1.15 (KHTML, like Gecko) Mobile/15E148","398","708","420","","1688","<div class=""prompt"" style=""font-size:24px; margin-bottom:20px;"">Which word describes you more?</div>","1","pairing","5","irresponsible","insecure","NegNeg","2","27","negative","negative","25","insecure","right","true"
"html-keyboard-response","12","17317","0.0-2.0-0.5","1027","54","post","8","evening","2026-03-23","2026-04-04","2026-04-12T03:40:17.261Z","Mozilla/5.0 (iPhone; CPU iPhone OS 18_6_2 like Mac OS X) AppleWebKit/605.1.15 (KHTML, like Gecko) Mobile/15E148","398","708","420","","null","<div style=""font-size:60px;"">+</div>","null","fixation","","","","","","","","","","","",""
"html-button-response","13","19899","0.0-2.0-1.5","1027","54","post","8","evening","2026-03-23","2026-04-04","2026-04-12T03:40:17.261Z","Mozilla/5.0 (iPhone; CPU iPhone OS 18_6_2 like Mac OS X) AppleWebKit/605.1.15 (KHTML, like Gecko) Mobile/15E148","398","708","420","","2580","<div class=""prompt"" style=""font-size:24px; margin-bottom:20px;"">Which word describes you more?</div>","0","pairing","6","entertaining","awkward","PosNeg","79","51","positive","negative","28","entertaining","left","true"
"html-keyboard-response","14","20701","0.0-2.0-0.6","1027","54","post","8","evening","2026-03-23","2026-04-04","2026-04-12T03:40:17.261Z","Mozilla/5.0 (iPhone; CPU iPhone OS 18_6_2 like Mac OS X) AppleWebKit/605.1.15 (KHTML, like Gecko) Mobile/15E148","398","708","420","","null","<div style=""font-size:60px;"">+</div>","null","fixation","","","","","","","","","","","",""
"html-button-response","15","21733","0.0-2.0-1.6","1027","54","post","8","evening","2026-03-23","2026-04-04","2026-04-12T03:40:17.261Z","Mozilla/5.0 (iPhone; CPU iPhone OS 18_6_2 like Mac OS X) AppleWebKit/605.1.15 (KHTML, like Gecko) Mobile/15E148","398","708","420","","1030","<div class=""prompt"" style=""font-size:24px; margin-bottom:20px;"">Which word describes you more?</div>","0","pairing","7","clever","sadistic","PosNeg","93","39","positive","negative","54","clever","left","true"
"html-keyboard-response","16","22535","0.0-2.0-0.7","1027","54","post","8","evening","2026-03-23","2026-04-04","2026-04-12T03:40:17.261Z","Mozilla/5.0 (iPhone; CPU iPhone OS 18_6_2 like Mac OS X) AppleWebKit/605.1.15 (KHTML, like Gecko) Mobile/15E148","398","708","420","","null","<div style=""font-size:60px;"">+</div>","null","fixation","","","","","","","","","","","",""
"html-button-response","17","24317","0.0-2.0-1.7","1027","54","post","8","evening","2026-03-23","2026-04-04","2026-04-12T03:40:17.261Z","Mozilla/5.0 (iPhone; CPU iPhone OS 18_6_2 like Mac OS X) AppleWebKit/605.1.15 (KHTML, like Gecko) Mobile/15E148","398","708","420","","1780","<div class=""prompt"" style=""font-size:24px; margin-bottom:20px;"">Which word describes you more?</div>","1","pairing","8","resourceful","enthusiastic","PosPos","96","95","positive","positive","1","enthusiastic","right","true"
"html-keyboard-response","18","25120","0.0-2.0-0.8","1027","54","post","8","evening","2026-03-23","2026-04-04","2026-04-12T03:40:17.261Z","Mozilla/5.0 (iPhone; CPU iPhone OS 18_6_2 like Mac OS X) AppleWebKit/605.1.15 (KHTML, like Gecko) Mobile/15E148","398","708","420","","null","<div style=""font-size:60px;"">+</div>","null","fixation","","","","","","","","","","","",""
"html-button-response","19","27960","0.0-2.0-1.8","1027","54","post","8","evening","2026-03-23","2026-04-04","2026-04-12T03:40:17.261Z","Mozilla/5.0 (iPhone; CPU iPhone OS 18_6_2 like Mac OS X) AppleWebKit/605.1.15 (KHTML, like Gecko) Mobile/15E148","398","708","420","","2838","<div class=""prompt"" style=""font-size:24px; margin-bottom:20px;"">Which word describes you more?</div>","1","pairing","9","garbage","valued","PosNeg","0","66","negative","positive","66","valued","right","true"
"html-keyboard-response","20","28762","0.0-2.0-0.9","1027","54","post","8","evening","2026-03-23","2026-04-04","2026-04-12T03:40:17.261Z","Mozilla/5.0 (iPhone; CPU iPhone OS 18_6_2 like Mac OS X) AppleWebKit/605.1.15 (KHTML, like Gecko) Mobile/15E148","398","708","420","","null","<div style=""font-size:60px;"">+</div>","null","fixation","","","","","","","","","","","",""
"html-button-response","21","30260","0.0-2.0-1.9","1027","54","post","8","evening","2026-03-23","2026-04-04","2026-04-12T03:40:17.261Z","Mozilla/5.0 (iPhone; CPU iPhone OS 18_6_2 like Mac OS X) AppleWebKit/605.1.15 (KHTML, like Gecko) Mobile/15E148","398","708","420","","1496","<div class=""prompt"" style=""font-size:24px; margin-bottom:20px;"">Which word describes you more?</div>","1","pairing","10","degenerate","gentle","PosNeg","43","69","negative","positive","26","gentle","right","true"
"html-keyboard-response","22","31066","0.0-2.0-0.10","1027","54","post","8","evening","2026-03-23","2026-04-04","2026-04-12T03:40:17.261Z","Mozilla/5.0 (iPhone; CPU iPhone OS 18_6_2 like Mac OS X) AppleWebKit/605.1.15 (KHTML, like Gecko) Mobile/15E148","398","708","420","","null","<div style=""font-size:60px;"">+</div>","null","fixation","","","","","","","","","","","",""
"html-button-response","23","32576","0.0-2.0-1.10","1027","54","post","8","evening","2026-03-23","2026-04-04","2026-04-12T03:40:17.261Z","Mozilla/5.0 (iPhone; CPU iPhone OS 18_6_2 like Mac OS X) AppleWebKit/605.1.15 (KHTML, like Gecko) Mobile/15E148","398","708","420","","1508","<div class=""prompt"" style=""font-size:24px; margin-bottom:20px;"">Which word describes you more?</div>","0","pairing","11","flawless","slob","PosNeg","23","58","positive","negative","35","flawless","left","true"
"html-keyboard-response","24","33379","0.0-2.0-0.11","1027","54","post","8","evening","2026-03-23","2026-04-04","2026-04-12T03:40:17.261Z","Mozilla/5.0 (iPhone; CPU iPhone OS 18_6_2 like Mac OS X) AppleWebKit/605.1.15 (KHTML, like Gecko) Mobile/15E148","398","708","420","","null","<div style=""font-size:60px;"">+</div>","null","fixation","","","","","","","","","","","",""
"html-button-response","25","35569","0.0-2.0-1.11","1027","54","post","8","evening","2026-03-23","2026-04-04","2026-04-12T03:40:17.261Z","Mozilla/5.0 (iPhone; CPU iPhone OS 18_6_2 like Mac OS X) AppleWebKit/605.1.15 (KHTML, like Gecko) Mobile/15E148","398","708","420","","2188","<div class=""prompt"" style=""font-size:24px; margin-bottom:20px;"">Which word describes you more?</div>","0","pairing","12","sensible","failure","PosNeg","88","4","positive","negative","84","sensible","left","true"
"html-keyboard-response","26","36372","0.0-2.0-0.12","1027","54","post","8","evening","2026-03-23","2026-04-04","2026-04-12T03:40:17.261Z","Mozilla/5.0 (iPhone; CPU iPhone OS 18_6_2 like Mac OS X) AppleWebKit/605.1.15 (KHTML, like Gecko) Mobile/15E148","398","708","420","","null","<div style=""font-size:60px;"">+</div>","null","fixation","","","","","","","","","","","",""
"html-button-response","27","38779","0.0-2.0-1.12","1027","54","post","8","evening","2026-03-23","2026-04-04","2026-04-12T03:40:17.261Z","Mozilla/5.0 (iPhone; CPU iPhone OS 18_6_2 like Mac OS X) AppleWebKit/605.1.15 (KHTML, like Gecko) Mobile/15E148","398","708","420","","2406","<div class=""prompt"" style=""font-size:24px; margin-bottom:20px;"">Which word describes you more?</div>","0","pairing","13","coward","distressed","NegNeg","40","16","negative","negative","24","coward","left","true"
"html-keyboard-response","28","39581","0.0-2.0-0.13","1027","54","post","8","evening","2026-03-23","2026-04-04","2026-04-12T03:40:17.261Z","Mozilla/5.0 (iPhone; CPU iPhone OS 18_6_2 like Mac OS X) AppleWebKit/605.1.15 (KHTML, like Gecko) Mobile/15E148","398","708","420","","null","<div style=""font-size:60px;"">+</div>","null","fixation","","","","","","","","","","","",""
"html-button-response","29","42679","0.0-2.0-1.13","1027","54","post","8","evening","2026-03-23","2026-04-04","2026-04-12T03:40:17.261Z","Mozilla/5.0 (iPhone; CPU iPhone OS 18_6_2 like Mac OS X) AppleWebKit/605.1.15 (KHTML, like Gecko) Mobile/15E148","398","708","420","","3096","<div class=""prompt"" style=""font-size:24px; margin-bottom:20px;"">Which word describes you more?</div>","0","pairing","14","enthusiastic","flawless","PosPos","95","23","positive","positive","72","enthusiastic","left","true"
"html-keyboard-response","30","43482","0.0-2.0-0.14","1027","54","post","8","evening","2026-03-23","2026-04-04","2026-04-12T03:40:17.261Z","Mozilla/5.0 (iPhone; CPU iPhone OS 18_6_2 like Mac OS X) AppleWebKit/605.1.15 (KHTML, like Gecko) Mobile/15E148","398","708","420","","null","<div style=""font-size:60px;"">+</div>","null","fixation","","","","","","","","","","","",""
"html-button-response","31","45530","0.0-2.0-1.14","1027","54","post","8","evening","2026-03-23","2026-04-04","2026-04-12T03:40:17.261Z","Mozilla/5.0 (iPhone; CPU iPhone OS 18_6_2 like Mac OS X) AppleWebKit/605.1.15 (KHTML, like Gecko) Mobile/15E148","398","708","420","","2047","<div class=""prompt"" style=""font-size:24px; margin-bottom:20px;"">Which word describes you more?</div>","1","pairing","15","unwanted","hesitant","NegNeg","3","24","negative","negative","21","hesitant","right","true"
"html-keyboard-response","32","46332","0.0-2.0-0.15","1027","54","post","8","evening","2026-03-23","2026-04-04","2026-04-12T03:40:17.261Z","Mozilla/5.0 (iPhone; CPU iPhone OS 18_6_2 like Mac OS X) AppleWebKit/605.1.15 (KHTML, like Gecko) Mobile/15E148","398","708","420","","null","<div style=""font-size:60px;"">+</div>","null","fixation","","","","","","","","","","","",""
"html-button-response","33","48122","0.0-2.0-1.15","1027","54","post","8","evening","2026-03-23","2026-04-04","2026-04-12T03:40:17.261Z","Mozilla/5.0 (iPhone; CPU iPhone OS 18_6_2 like Mac OS X) AppleWebKit/605.1.15 (KHTML, like Gecko) Mobile/15E148","398","708","420","","1788","<div class=""prompt"" style=""font-size:24px; margin-bottom:20px;"">Which word describes you more?</div>","1","pairing","16","anxious","enthusiastic","PosNeg","51","95","negative","positive","44","enthusiastic","right","true"
"html-keyboard-response","34","48925","0.0-2.0-0.16","1027","54","post","8","evening","2026-03-23","2026-04-04","2026-04-12T03:40:17.261Z","Mozilla/5.0 (iPhone; CPU iPhone OS 18_6_2 like Mac OS X) AppleWebKit/605.1.15 (KHTML, like Gecko) Mobile/15E148","398","708","420","","null","<div style=""font-size:60px;"">+</div>","null","fixation","","","","","","","","","","","",""
"html-button-response","35","50156","0.0-2.0-1.16","1027","54","post","8","evening","2026-03-23","2026-04-04","2026-04-12T03:40:17.261Z","Mozilla/5.0 (iPhone; CPU iPhone OS 18_6_2 like Mac OS X) AppleWebKit/605.1.15 (KHTML, like Gecko) Mobile/15E148","398","708","420","","1228","<div class=""prompt"" style=""font-size:24px; margin-bottom:20px;"">Which word describes you more?</div>","1","pairing","17","flawless","companion","PosPos","23","91","positive","positive","68","companion","right","true"
"html-keyboard-response","36","50958","0.0-2.0-0.17","1027","54","post","8","evening","2026-03-23","2026-04-04","2026-04-12T03:40:17.261Z","Mozilla/5.0 (iPhone; CPU iPhone OS 18_6_2 like Mac OS X) AppleWebKit/605.1.15 (KHTML, like Gecko) Mobile/15E148","398","708","420","","null","<div style=""font-size:60px;"">+</div>","null","fixation","","","","","","","","","","","",""
"html-button-response","37","53816","0.0-2.0-1.17","1027","54","post","8","evening","2026-03-23","2026-04-04","2026-04-12T03:40:17.261Z","Mozilla/5.0 (iPhone; CPU iPhone OS 18_6_2 like Mac OS X) AppleWebKit/605.1.15 (KHTML, like Gecko) Mobile/15E148","398","708","420","","2856","<div class=""prompt"" style=""font-size:24px; margin-bottom:20px;"">Which word describes you more?</div>","0","pairing","18","sadistic","hateful","NegNeg","39","0","negative","negative","39","sadistic","left","true"
"html-keyboard-response","38","54618","0.0-2.0-0.18","1027","54","post","8","evening","2026-03-23","2026-04-04","2026-04-12T03:40:17.261Z","Mozilla/5.0 (iPhone; CPU iPhone OS 18_6_2 like Mac OS X) AppleWebKit/605.1.15 (KHTML, like Gecko) Mobile/15E148","398","708","420","","null","<div style=""font-size:60px;"">+</div>","null","fixation","","","","","","","","","","","",""
"html-button-response","39","56299","0.0-2.0-1.18","1027","54","post","8","evening","2026-03-23","2026-04-04","2026-04-12T03:40:17.261Z","Mozilla/5.0 (iPhone; CPU iPhone OS 18_6_2 like Mac OS X) AppleWebKit/605.1.15 (KHTML, like Gecko) Mobile/15E148","398","708","420","","1679","<div class=""prompt"" style=""font-size:24px; margin-bottom:20px;"">Which word describes you more?</div>","0","pairing","19","healthy","companion","PosPos","39","91","positive","positive","52","healthy","left","true"
"html-keyboard-response","40","57101","0.0-2.0-0.19","1027","54","post","8","evening","2026-03-23","2026-04-04","2026-04-12T03:40:17.261Z","Mozilla/5.0 (iPhone; CPU iPhone OS 18_6_2 like Mac OS X) AppleWebKit/605.1.15 (KHTML, like Gecko) Mobile/15E148","398","708","420","","null","<div style=""font-size:60px;"">+</div>","null","fixation","","","","","","","","","","","",""
"html-button-response","41","59449","0.0-2.0-1.19","1027","54","post","8","evening","2026-03-23","2026-04-04","2026-04-12T03:40:17.261Z","Mozilla/5.0 (iPhone; CPU iPhone OS 18_6_2 like Mac OS X) AppleWebKit/605.1.15 (KHTML, like Gecko) Mobile/15E148","398","708","420","","2346","<div class=""prompt"" style=""font-size:24px; margin-bottom:20px;"">Which word describes you more?</div>","0","pairing","20","delight","fraud","PosNeg","85","0","positive","negative","85","delight","left","true"
"html-keyboard-response","42","60251","0.0-2.0-0.20","1027","54","post","8","evening","2026-03-23","2026-04-04","2026-04-12T03:40:17.261Z","Mozilla/5.0 (iPhone; CPU iPhone OS 18_6_2 like Mac OS X) AppleWebKit/605.1.15 (KHTML, like Gecko) Mobile/15E148","398","708","420","","null","<div style=""font-size:60px;"">+</div>","null","fixation","","","","","","","","","","","",""
"html-button-response","43","63107","0.0-2.0-1.20","1027","54","post","8","evening","2026-03-23","2026-04-04","2026-04-12T03:40:17.261Z","Mozilla/5.0 (iPhone; CPU iPhone OS 18_6_2 like Mac OS X) AppleWebKit/605.1.15 (KHTML, like Gecko) Mobile/15E148","398","708","420","","2854","<div class=""prompt"" style=""font-size:24px; margin-bottom:20px;"">Which word describes you more?</div>","1","pairing","21","successful","satisfied","PosPos","59","67","positive","positive","8","satisfied","right","true"
"html-keyboard-response","44","63909","0.0-2.0-0.21","1027","54","post","8","evening","2026-03-23","2026-04-04","2026-04-12T03:40:17.261Z","Mozilla/5.0 (iPhone; CPU iPhone OS 18_6_2 like Mac OS X) AppleWebKit/605.1.15 (KHTML, like Gecko) Mobile/15E148","398","708","420","","null","<div style=""font-size:60px;"">+</div>","null","fixation","","","","","","","","","","","",""
"html-button-response","45","66693","0.0-2.0-1.21","1027","54","post","8","evening","2026-03-23","2026-04-04","2026-04-12T03:40:17.261Z","Mozilla/5.0 (iPhone; CPU iPhone OS 18_6_2 like Mac OS X) AppleWebKit/605.1.15 (KHTML, like Gecko) Mobile/15E148","398","708","420","","2782","<div class=""prompt"" style=""font-size:24px; margin-bottom:20px;"">Which word describes you more?</div>","1","pairing","22","coward","healthy","PosNeg","40","39","negative","positive","1","healthy","right","true"
"html-keyboard-response","46","67495","0.0-2.0-0.22","1027","54","post","8","evening","2026-03-23","2026-04-04","2026-04-12T03:40:17.261Z","Mozilla/5.0 (iPhone; CPU iPhone OS 18_6_2 like Mac OS X) AppleWebKit/605.1.15 (KHTML, like Gecko) Mobile/15E148","398","708","420","","null","<div style=""font-size:60px;"">+</div>","null","fixation","","","","","","","","","","","",""
"html-button-response","47","70552","0.0-2.0-1.22","1027","54","post","8","evening","2026-03-23","2026-04-04","2026-04-12T03:40:17.261Z","Mozilla/5.0 (iPhone; CPU iPhone OS 18_6_2 like Mac OS X) AppleWebKit/605.1.15 (KHTML, like Gecko) Mobile/15E148","398","708","420","","3055","<div class=""prompt"" style=""font-size:24px; margin-bottom:20px;"">Which word describes you more?</div>","0","pairing","23","carefree","awkward","PosNeg","48","51","positive","negative","3","carefree","left","true"
"html-keyboard-response","48","71355","0.0-2.0-0.23","1027","54","post","8","evening","2026-03-23","2026-04-04","2026-04-12T03:40:17.261Z","Mozilla/5.0 (iPhone; CPU iPhone OS 18_6_2 like Mac OS X) AppleWebKit/605.1.15 (KHTML, like Gecko) Mobile/15E148","398","708","420","","null","<div style=""font-size:60px;"">+</div>","null","fixation","","","","","","","","","","","",""
"html-button-response","49","72710","0.0-2.0-1.23","1027","54","post","8","evening","2026-03-23","2026-04-04","2026-04-12T03:40:17.261Z","Mozilla/5.0 (iPhone; CPU iPhone OS 18_6_2 like Mac OS X) AppleWebKit/605.1.15 (KHTML, like Gecko) Mobile/15E148","398","708","420","","1354","<div class=""prompt"" style=""font-size:24px; margin-bottom:20px;"">Which word describes you more?</div>","1","pairing","24","miserable","slob","NegNeg","8","58","negative","negative","50","slob","right","true"
"instructions","50","73336","0.0-3.0","1027","54","post","8","evening","2026-03-23","2026-04-04","2026-04-12T03:40:17.261Z","Mozilla/5.0 (iPhone; CPU iPhone OS 18_6_2 like Mac OS X) AppleWebKit/605.1.15 (KHTML, like Gecko) Mobile/15E148","398","708","420","[{""page_index"":0,""viewing_time"":623}]","624","","","","","","","","","","","","","","",""
