"trial_type","trial_index","time_elapsed","internal_node_id","PUNS_ID","session_number","session_phase","session_day","session_slot","ema_start_date","ema_post_start_date","experiment_start","browser","screen_width","screen_height","timezone_offset","view_history","rt","stimulus","response","which_experiment_phase","trial_number","left_word","right_word","valence","left_base_rating","right_base_rating","left_valence","right_valence","abs_diff","participant_response","chosen_side","valid_response"
"pavlovia","0","1611","0.0-0.0","1050","17","pre","6","afternoon","2026-03-31","2026-04-14","2026-04-05T19:15:02.711Z","Mozilla/5.0 (iPhone; CPU iPhone OS 18_7 like Mac OS X) AppleWebKit/605.1.15 (KHTML, like Gecko) Mobile/15E148","358","632","240","","","","","","","","","","","","","","","","",""
"instructions","1","5942","0.0-1.0","1050","17","pre","6","afternoon","2026-03-31","2026-04-14","2026-04-05T19:15:02.711Z","Mozilla/5.0 (iPhone; CPU iPhone OS 18_7 like Mac OS X) AppleWebKit/605.1.15 (KHTML, like Gecko) Mobile/15E148","358","632","240","[{""page_index"":0,""viewing_time"":840},{""page_index"":1,""viewing_time"":540},{""page_index"":2,""viewing_time"":2195},{""page_index"":3,""viewing_time"":748}]","4324","","","","","","","","","","","","","","",""
"html-keyboard-response","2","6749","0.0-2.0-0.0","1050","17","pre","6","afternoon","2026-03-31","2026-04-14","2026-04-05T19:15:02.711Z","Mozilla/5.0 (iPhone; CPU iPhone OS 18_7 like Mac OS X) AppleWebKit/605.1.15 (KHTML, like Gecko) Mobile/15E148","358","632","240","","null","<div style=""font-size:60px;"">+</div>","null","fixation","","","","","","","","","","","",""
"html-button-response","3","7858","0.0-2.0-1.0","1050","17","pre","6","afternoon","2026-03-31","2026-04-14","2026-04-05T19:15:02.711Z","Mozilla/5.0 (iPhone; CPU iPhone OS 18_7 like Mac OS X) AppleWebKit/605.1.15 (KHTML, like Gecko) Mobile/15E148","358","632","240","","1101","<div class=""prompt"" style=""font-size:24px; margin-bottom:20px;"">Which word describes you more?</div>","0","pairing","1","companion","worthless","PosNeg","23","96","positive","negative","73","companion","left","true"
"html-keyboard-response","4","8661","0.0-2.0-0.1","1050","17","pre","6","afternoon","2026-03-31","2026-04-14","2026-04-05T19:15:02.711Z","Mozilla/5.0 (iPhone; CPU iPhone OS 18_7 like Mac OS X) AppleWebKit/605.1.15 (KHTML, like Gecko) Mobile/15E148","358","632","240","","null","<div style=""font-size:60px;"">+</div>","null","fixation","","","","","","","","","","","",""
"html-button-response","5","10534","0.0-2.0-1.1","1050","17","pre","6","afternoon","2026-03-31","2026-04-14","2026-04-05T19:15:02.711Z","Mozilla/5.0 (iPhone; CPU iPhone OS 18_7 like Mac OS X) AppleWebKit/605.1.15 (KHTML, like Gecko) Mobile/15E148","358","632","240","","1872","<div class=""prompt"" style=""font-size:24px; margin-bottom:20px;"">Which word describes you more?</div>","0","pairing","2","reliable","proficient","PosPos","75","93","positive","positive","18","reliable","left","true"
"html-keyboard-response","6","11337","0.0-2.0-0.2","1050","17","pre","6","afternoon","2026-03-31","2026-04-14","2026-04-05T19:15:02.711Z","Mozilla/5.0 (iPhone; CPU iPhone OS 18_7 like Mac OS X) AppleWebKit/605.1.15 (KHTML, like Gecko) Mobile/15E148","358","632","240","","null","<div style=""font-size:60px;"">+</div>","null","fixation","","","","","","","","","","","",""
"html-button-response","7","12165","0.0-2.0-1.2","1050","17","pre","6","afternoon","2026-03-31","2026-04-14","2026-04-05T19:15:02.711Z","Mozilla/5.0 (iPhone; CPU iPhone OS 18_7 like Mac OS X) AppleWebKit/605.1.15 (KHTML, like Gecko) Mobile/15E148","358","632","240","","822","<div class=""prompt"" style=""font-size:24px; margin-bottom:20px;"">Which word describes you more?</div>","0","pairing","3","friend","sensible","PosPos","15","88","positive","positive","73","friend","left","true"
"html-keyboard-response","8","12968","0.0-2.0-0.3","1050","17","pre","6","afternoon","2026-03-31","2026-04-14","2026-04-05T19:15:02.711Z","Mozilla/5.0 (iPhone; CPU iPhone OS 18_7 like Mac OS X) AppleWebKit/605.1.15 (KHTML, like Gecko) Mobile/15E148","358","632","240","","null","<div style=""font-size:60px;"">+</div>","null","fixation","","","","","","","","","","","",""
"html-button-response","9","13679","0.0-2.0-1.3","1050","17","pre","6","afternoon","2026-03-31","2026-04-14","2026-04-05T19:15:02.711Z","Mozilla/5.0 (iPhone; CPU iPhone OS 18_7 like Mac OS X) AppleWebKit/605.1.15 (KHTML, like Gecko) Mobile/15E148","358","632","240","","709","<div class=""prompt"" style=""font-size:24px; margin-bottom:20px;"">Which word describes you more?</div>","0","pairing","4","proficient","friend","PosPos","93","15","positive","positive","78","proficient","left","true"
"html-keyboard-response","10","14482","0.0-2.0-0.4","1050","17","pre","6","afternoon","2026-03-31","2026-04-14","2026-04-05T19:15:02.711Z","Mozilla/5.0 (iPhone; CPU iPhone OS 18_7 like Mac OS X) AppleWebKit/605.1.15 (KHTML, like Gecko) Mobile/15E148","358","632","240","","null","<div style=""font-size:60px;"">+</div>","null","fixation","","","","","","","","","","","",""
"html-button-response","11","15693","0.0-2.0-1.4","1050","17","pre","6","afternoon","2026-03-31","2026-04-14","2026-04-05T19:15:02.711Z","Mozilla/5.0 (iPhone; CPU iPhone OS 18_7 like Mac OS X) AppleWebKit/605.1.15 (KHTML, like Gecko) Mobile/15E148","358","632","240","","1209","<div class=""prompt"" style=""font-size:24px; margin-bottom:20px;"">Which word describes you more?</div>","1","pairing","5","alone","legendary","PosNeg","13","80","negative","positive","67","legendary","right","true"
"html-keyboard-response","12","16496","0.0-2.0-0.5","1050","17","pre","6","afternoon","2026-03-31","2026-04-14","2026-04-05T19:15:02.711Z","Mozilla/5.0 (iPhone; CPU iPhone OS 18_7 like Mac OS X) AppleWebKit/605.1.15 (KHTML, like Gecko) Mobile/15E148","358","632","240","","null","<div style=""font-size:60px;"">+</div>","null","fixation","","","","","","","","","","","",""
"html-button-response","13","17223","0.0-2.0-1.5","1050","17","pre","6","afternoon","2026-03-31","2026-04-14","2026-04-05T19:15:02.711Z","Mozilla/5.0 (iPhone; CPU iPhone OS 18_7 like Mac OS X) AppleWebKit/605.1.15 (KHTML, like Gecko) Mobile/15E148","358","632","240","","724","<div class=""prompt"" style=""font-size:24px; margin-bottom:20px;"">Which word describes you more?</div>","0","pairing","6","resourceful","appealing","PosPos","93","58","positive","positive","35","resourceful","left","true"
"html-keyboard-response","14","18025","0.0-2.0-0.6","1050","17","pre","6","afternoon","2026-03-31","2026-04-14","2026-04-05T19:15:02.711Z","Mozilla/5.0 (iPhone; CPU iPhone OS 18_7 like Mac OS X) AppleWebKit/605.1.15 (KHTML, like Gecko) Mobile/15E148","358","632","240","","null","<div style=""font-size:60px;"">+</div>","null","fixation","","","","","","","","","","","",""
"html-button-response","15","19187","0.0-2.0-1.6","1050","17","pre","6","afternoon","2026-03-31","2026-04-14","2026-04-05T19:15:02.711Z","Mozilla/5.0 (iPhone; CPU iPhone OS 18_7 like Mac OS X) AppleWebKit/605.1.15 (KHTML, like Gecko) Mobile/15E148","358","632","240","","1159","<div class=""prompt"" style=""font-size:24px; margin-bottom:20px;"">Which word describes you more?</div>","1","pairing","7","miserable","alone","NegNeg","94","13","negative","negative","81","alone","right","true"
"html-keyboard-response","16","19990","0.0-2.0-0.7","1050","17","pre","6","afternoon","2026-03-31","2026-04-14","2026-04-05T19:15:02.711Z","Mozilla/5.0 (iPhone; CPU iPhone OS 18_7 like Mac OS X) AppleWebKit/605.1.15 (KHTML, like Gecko) Mobile/15E148","358","632","240","","null","<div style=""font-size:60px;"">+</div>","null","fixation","","","","","","","","","","","",""
"html-button-response","17","20735","0.0-2.0-1.7","1050","17","pre","6","afternoon","2026-03-31","2026-04-14","2026-04-05T19:15:02.711Z","Mozilla/5.0 (iPhone; CPU iPhone OS 18_7 like Mac OS X) AppleWebKit/605.1.15 (KHTML, like Gecko) Mobile/15E148","358","632","240","","742","<div class=""prompt"" style=""font-size:24px; margin-bottom:20px;"">Which word describes you more?</div>","0","pairing","8","companion","learner","PosPos","23","84","positive","positive","61","companion","left","true"
"html-keyboard-response","18","21538","0.0-2.0-0.8","1050","17","pre","6","afternoon","2026-03-31","2026-04-14","2026-04-05T19:15:02.711Z","Mozilla/5.0 (iPhone; CPU iPhone OS 18_7 like Mac OS X) AppleWebKit/605.1.15 (KHTML, like Gecko) Mobile/15E148","358","632","240","","null","<div style=""font-size:60px;"">+</div>","null","fixation","","","","","","","","","","","",""
"html-button-response","19","22233","0.0-2.0-1.8","1050","17","pre","6","afternoon","2026-03-31","2026-04-14","2026-04-05T19:15:02.711Z","Mozilla/5.0 (iPhone; CPU iPhone OS 18_7 like Mac OS X) AppleWebKit/605.1.15 (KHTML, like Gecko) Mobile/15E148","358","632","240","","693","<div class=""prompt"" style=""font-size:24px; margin-bottom:20px;"">Which word describes you more?</div>","0","pairing","9","wise","creep","PosNeg","100","28","positive","negative","72","wise","left","true"
"html-keyboard-response","20","23036","0.0-2.0-0.9","1050","17","pre","6","afternoon","2026-03-31","2026-04-14","2026-04-05T19:15:02.711Z","Mozilla/5.0 (iPhone; CPU iPhone OS 18_7 like Mac OS X) AppleWebKit/605.1.15 (KHTML, like Gecko) Mobile/15E148","358","632","240","","null","<div style=""font-size:60px;"">+</div>","null","fixation","","","","","","","","","","","",""
"html-button-response","21","24079","0.0-2.0-1.9","1050","17","pre","6","afternoon","2026-03-31","2026-04-14","2026-04-05T19:15:02.711Z","Mozilla/5.0 (iPhone; CPU iPhone OS 18_7 like Mac OS X) AppleWebKit/605.1.15 (KHTML, like Gecko) Mobile/15E148","358","632","240","","1041","<div class=""prompt"" style=""font-size:24px; margin-bottom:20px;"">Which word describes you more?</div>","0","pairing","10","unwanted","empty","NegNeg","31","32","negative","negative","1","unwanted","left","true"
"html-keyboard-response","22","24882","0.0-2.0-0.10","1050","17","pre","6","afternoon","2026-03-31","2026-04-14","2026-04-05T19:15:02.711Z","Mozilla/5.0 (iPhone; CPU iPhone OS 18_7 like Mac OS X) AppleWebKit/605.1.15 (KHTML, like Gecko) Mobile/15E148","358","632","240","","null","<div style=""font-size:60px;"">+</div>","null","fixation","","","","","","","","","","","",""
"html-button-response","23","26093","0.0-2.0-1.10","1050","17","pre","6","afternoon","2026-03-31","2026-04-14","2026-04-05T19:15:02.711Z","Mozilla/5.0 (iPhone; CPU iPhone OS 18_7 like Mac OS X) AppleWebKit/605.1.15 (KHTML, like Gecko) Mobile/15E148","358","632","240","","1208","<div class=""prompt"" style=""font-size:24px; margin-bottom:20px;"">Which word describes you more?</div>","1","pairing","11","liar","arrogant","NegNeg","97","88","negative","negative","9","arrogant","right","true"
"html-keyboard-response","24","26896","0.0-2.0-0.11","1050","17","pre","6","afternoon","2026-03-31","2026-04-14","2026-04-05T19:15:02.711Z","Mozilla/5.0 (iPhone; CPU iPhone OS 18_7 like Mac OS X) AppleWebKit/605.1.15 (KHTML, like Gecko) Mobile/15E148","358","632","240","","null","<div style=""font-size:60px;"">+</div>","null","fixation","","","","","","","","","","","",""
"html-button-response","25","27641","0.0-2.0-1.11","1050","17","pre","6","afternoon","2026-03-31","2026-04-14","2026-04-05T19:15:02.711Z","Mozilla/5.0 (iPhone; CPU iPhone OS 18_7 like Mac OS X) AppleWebKit/605.1.15 (KHTML, like Gecko) Mobile/15E148","358","632","240","","743","<div class=""prompt"" style=""font-size:24px; margin-bottom:20px;"">Which word describes you more?</div>","0","pairing","12","energetic","unwanted","PosNeg","66","31","positive","negative","35","energetic","left","true"
"html-keyboard-response","26","28443","0.0-2.0-0.12","1050","17","pre","6","afternoon","2026-03-31","2026-04-14","2026-04-05T19:15:02.711Z","Mozilla/5.0 (iPhone; CPU iPhone OS 18_7 like Mac OS X) AppleWebKit/605.1.15 (KHTML, like Gecko) Mobile/15E148","358","632","240","","null","<div style=""font-size:60px;"">+</div>","null","fixation","","","","","","","","","","","",""
"html-button-response","27","29220","0.0-2.0-1.12","1050","17","pre","6","afternoon","2026-03-31","2026-04-14","2026-04-05T19:15:02.711Z","Mozilla/5.0 (iPhone; CPU iPhone OS 18_7 like Mac OS X) AppleWebKit/605.1.15 (KHTML, like Gecko) Mobile/15E148","358","632","240","","774","<div class=""prompt"" style=""font-size:24px; margin-bottom:20px;"">Which word describes you more?</div>","0","pairing","13","adventurous","deceitful","PosNeg","96","86","positive","negative","10","adventurous","left","true"
"html-keyboard-response","28","30023","0.0-2.0-0.13","1050","17","pre","6","afternoon","2026-03-31","2026-04-14","2026-04-05T19:15:02.711Z","Mozilla/5.0 (iPhone; CPU iPhone OS 18_7 like Mac OS X) AppleWebKit/605.1.15 (KHTML, like Gecko) Mobile/15E148","358","632","240","","null","<div style=""font-size:60px;"">+</div>","null","fixation","","","","","","","","","","","",""
"html-button-response","29","31450","0.0-2.0-1.13","1050","17","pre","6","afternoon","2026-03-31","2026-04-14","2026-04-05T19:15:02.711Z","Mozilla/5.0 (iPhone; CPU iPhone OS 18_7 like Mac OS X) AppleWebKit/605.1.15 (KHTML, like Gecko) Mobile/15E148","358","632","240","","1425","<div class=""prompt"" style=""font-size:24px; margin-bottom:20px;"">Which word describes you more?</div>","1","pairing","14","liar","unlucky","NegNeg","97","60","negative","negative","37","unlucky","right","true"
"html-keyboard-response","30","32252","0.0-2.0-0.14","1050","17","pre","6","afternoon","2026-03-31","2026-04-14","2026-04-05T19:15:02.711Z","Mozilla/5.0 (iPhone; CPU iPhone OS 18_7 like Mac OS X) AppleWebKit/605.1.15 (KHTML, like Gecko) Mobile/15E148","358","632","240","","null","<div style=""font-size:60px;"">+</div>","null","fixation","","","","","","","","","","","",""
"html-button-response","31","33081","0.0-2.0-1.14","1050","17","pre","6","afternoon","2026-03-31","2026-04-14","2026-04-05T19:15:02.711Z","Mozilla/5.0 (iPhone; CPU iPhone OS 18_7 like Mac OS X) AppleWebKit/605.1.15 (KHTML, like Gecko) Mobile/15E148","358","632","240","","820","<div class=""prompt"" style=""font-size:24px; margin-bottom:20px;"">Which word describes you more?</div>","0","pairing","15","shameful","incompetent","NegNeg","53","97","negative","negative","44","shameful","left","true"
"html-keyboard-response","32","33885","0.0-2.0-0.15","1050","17","pre","6","afternoon","2026-03-31","2026-04-14","2026-04-05T19:15:02.711Z","Mozilla/5.0 (iPhone; CPU iPhone OS 18_7 like Mac OS X) AppleWebKit/605.1.15 (KHTML, like Gecko) Mobile/15E148","358","632","240","","null","<div style=""font-size:60px;"">+</div>","null","fixation","","","","","","","","","","","",""
"html-button-response","33","35027","0.0-2.0-1.15","1050","17","pre","6","afternoon","2026-03-31","2026-04-14","2026-04-05T19:15:02.711Z","Mozilla/5.0 (iPhone; CPU iPhone OS 18_7 like Mac OS X) AppleWebKit/605.1.15 (KHTML, like Gecko) Mobile/15E148","358","632","240","","1140","<div class=""prompt"" style=""font-size:24px; margin-bottom:20px;"">Which word describes you more?</div>","1","pairing","16","traitor","unfaithful","NegNeg","24","92","negative","negative","68","unfaithful","right","true"
"html-keyboard-response","34","35829","0.0-2.0-0.16","1050","17","pre","6","afternoon","2026-03-31","2026-04-14","2026-04-05T19:15:02.711Z","Mozilla/5.0 (iPhone; CPU iPhone OS 18_7 like Mac OS X) AppleWebKit/605.1.15 (KHTML, like Gecko) Mobile/15E148","358","632","240","","null","<div style=""font-size:60px;"">+</div>","null","fixation","","","","","","","","","","","",""
"html-button-response","35","37420","0.0-2.0-1.16","1050","17","pre","6","afternoon","2026-03-31","2026-04-14","2026-04-05T19:15:02.711Z","Mozilla/5.0 (iPhone; CPU iPhone OS 18_7 like Mac OS X) AppleWebKit/605.1.15 (KHTML, like Gecko) Mobile/15E148","358","632","240","","1587","<div class=""prompt"" style=""font-size:24px; margin-bottom:20px;"">Which word describes you more?</div>","1","pairing","17","bitter","spirited","PosNeg","80","76","negative","positive","4","spirited","right","true"
"html-keyboard-response","36","38222","0.0-2.0-0.17","1050","17","pre","6","afternoon","2026-03-31","2026-04-14","2026-04-05T19:15:02.711Z","Mozilla/5.0 (iPhone; CPU iPhone OS 18_7 like Mac OS X) AppleWebKit/605.1.15 (KHTML, like Gecko) Mobile/15E148","358","632","240","","null","<div style=""font-size:60px;"">+</div>","null","fixation","","","","","","","","","","","",""
"html-button-response","37","39206","0.0-2.0-1.17","1050","17","pre","6","afternoon","2026-03-31","2026-04-14","2026-04-05T19:15:02.711Z","Mozilla/5.0 (iPhone; CPU iPhone OS 18_7 like Mac OS X) AppleWebKit/605.1.15 (KHTML, like Gecko) Mobile/15E148","358","632","240","","982","<div class=""prompt"" style=""font-size:24px; margin-bottom:20px;"">Which word describes you more?</div>","1","pairing","18","jerk","successful","PosNeg","70","75","negative","positive","5","successful","right","true"
"html-keyboard-response","38","40008","0.0-2.0-0.18","1050","17","pre","6","afternoon","2026-03-31","2026-04-14","2026-04-05T19:15:02.711Z","Mozilla/5.0 (iPhone; CPU iPhone OS 18_7 like Mac OS X) AppleWebKit/605.1.15 (KHTML, like Gecko) Mobile/15E148","358","632","240","","null","<div style=""font-size:60px;"">+</div>","null","fixation","","","","","","","","","","","",""
"html-button-response","39","40968","0.0-2.0-1.18","1050","17","pre","6","afternoon","2026-03-31","2026-04-14","2026-04-05T19:15:02.711Z","Mozilla/5.0 (iPhone; CPU iPhone OS 18_7 like Mac OS X) AppleWebKit/605.1.15 (KHTML, like Gecko) Mobile/15E148","358","632","240","","957","<div class=""prompt"" style=""font-size:24px; margin-bottom:20px;"">Which word describes you more?</div>","1","pairing","19","prick","wise","PosNeg","44","100","negative","positive","56","wise","right","true"
"html-keyboard-response","40","41770","0.0-2.0-0.19","1050","17","pre","6","afternoon","2026-03-31","2026-04-14","2026-04-05T19:15:02.711Z","Mozilla/5.0 (iPhone; CPU iPhone OS 18_7 like Mac OS X) AppleWebKit/605.1.15 (KHTML, like Gecko) Mobile/15E148","358","632","240","","null","<div style=""font-size:60px;"">+</div>","null","fixation","","","","","","","","","","","",""
"html-button-response","41","42600","0.0-2.0-1.19","1050","17","pre","6","afternoon","2026-03-31","2026-04-14","2026-04-05T19:15:02.711Z","Mozilla/5.0 (iPhone; CPU iPhone OS 18_7 like Mac OS X) AppleWebKit/605.1.15 (KHTML, like Gecko) Mobile/15E148","358","632","240","","828","<div class=""prompt"" style=""font-size:24px; margin-bottom:20px;"">Which word describes you more?</div>","0","pairing","20","satisfied","bitter","PosNeg","42","80","positive","negative","38","satisfied","left","true"
"html-keyboard-response","42","43403","0.0-2.0-0.20","1050","17","pre","6","afternoon","2026-03-31","2026-04-14","2026-04-05T19:15:02.711Z","Mozilla/5.0 (iPhone; CPU iPhone OS 18_7 like Mac OS X) AppleWebKit/605.1.15 (KHTML, like Gecko) Mobile/15E148","358","632","240","","null","<div style=""font-size:60px;"">+</div>","null","fixation","","","","","","","","","","","",""
"html-button-response","43","44115","0.0-2.0-1.20","1050","17","pre","6","afternoon","2026-03-31","2026-04-14","2026-04-05T19:15:02.711Z","Mozilla/5.0 (iPhone; CPU iPhone OS 18_7 like Mac OS X) AppleWebKit/605.1.15 (KHTML, like Gecko) Mobile/15E148","358","632","240","","710","<div class=""prompt"" style=""font-size:24px; margin-bottom:20px;"">Which word describes you more?</div>","0","pairing","21","valued","lifeless","PosNeg","57","88","positive","negative","31","valued","left","true"
"html-keyboard-response","44","44917","0.0-2.0-0.21","1050","17","pre","6","afternoon","2026-03-31","2026-04-14","2026-04-05T19:15:02.711Z","Mozilla/5.0 (iPhone; CPU iPhone OS 18_7 like Mac OS X) AppleWebKit/605.1.15 (KHTML, like Gecko) Mobile/15E148","358","632","240","","null","<div style=""font-size:60px;"">+</div>","null","fixation","","","","","","","","","","","",""
"html-button-response","45","46741","0.0-2.0-1.21","1050","17","pre","6","afternoon","2026-03-31","2026-04-14","2026-04-05T19:15:02.711Z","Mozilla/5.0 (iPhone; CPU iPhone OS 18_7 like Mac OS X) AppleWebKit/605.1.15 (KHTML, like Gecko) Mobile/15E148","358","632","240","","1822","<div class=""prompt"" style=""font-size:24px; margin-bottom:20px;"">Which word describes you more?</div>","1","pairing","22","stingy","helper","PosNeg","75","36","negative","positive","39","helper","right","true"
"html-keyboard-response","46","47543","0.0-2.0-0.22","1050","17","pre","6","afternoon","2026-03-31","2026-04-14","2026-04-05T19:15:02.711Z","Mozilla/5.0 (iPhone; CPU iPhone OS 18_7 like Mac OS X) AppleWebKit/605.1.15 (KHTML, like Gecko) Mobile/15E148","358","632","240","","null","<div style=""font-size:60px;"">+</div>","null","fixation","","","","","","","","","","","",""
"html-button-response","47","48441","0.0-2.0-1.22","1050","17","pre","6","afternoon","2026-03-31","2026-04-14","2026-04-05T19:15:02.711Z","Mozilla/5.0 (iPhone; CPU iPhone OS 18_7 like Mac OS X) AppleWebKit/605.1.15 (KHTML, like Gecko) Mobile/15E148","358","632","240","","895","<div class=""prompt"" style=""font-size:24px; margin-bottom:20px;"">Which word describes you more?</div>","1","pairing","23","liar","friend","PosNeg","97","15","negative","positive","82","friend","right","true"
"html-keyboard-response","48","49243","0.0-2.0-0.23","1050","17","pre","6","afternoon","2026-03-31","2026-04-14","2026-04-05T19:15:02.711Z","Mozilla/5.0 (iPhone; CPU iPhone OS 18_7 like Mac OS X) AppleWebKit/605.1.15 (KHTML, like Gecko) Mobile/15E148","358","632","240","","null","<div style=""font-size:60px;"">+</div>","null","fixation","","","","","","","","","","","",""
"html-button-response","49","50421","0.0-2.0-1.23","1050","17","pre","6","afternoon","2026-03-31","2026-04-14","2026-04-05T19:15:02.711Z","Mozilla/5.0 (iPhone; CPU iPhone OS 18_7 like Mac OS X) AppleWebKit/605.1.15 (KHTML, like Gecko) Mobile/15E148","358","632","240","","1176","<div class=""prompt"" style=""font-size:24px; margin-bottom:20px;"">Which word describes you more?</div>","1","pairing","24","decisive","clever","PosPos","92","72","positive","positive","20","clever","right","true"
"instructions","50","51253","0.0-3.0","1050","17","pre","6","afternoon","2026-03-31","2026-04-14","2026-04-05T19:15:02.711Z","Mozilla/5.0 (iPhone; CPU iPhone OS 18_7 like Mac OS X) AppleWebKit/605.1.15 (KHTML, like Gecko) Mobile/15E148","358","632","240","[{""page_index"":0,""viewing_time"":828}]","828","","","","","","","","","","","","","","",""
