"trial_type","trial_index","time_elapsed","internal_node_id","PUNS_ID","session_number","session_phase","session_day","session_slot","ema_start_date","ema_post_start_date","experiment_start","browser","screen_width","screen_height","timezone_offset","view_history","rt","stimulus","response","which_experiment_phase","trial_number","left_word","right_word","valence","left_base_rating","right_base_rating","left_valence","right_valence","abs_diff","participant_response","chosen_side","valid_response"
"pavlovia","0","1974","0.0-0.0","1027","14","pre","5","afternoon","2026-03-22","2026-04-03","2026-03-27T00:14:02.680Z","Mozilla/5.0 (iPhone; CPU iPhone OS 18_6_2 like Mac OS X) AppleWebKit/605.1.15 (KHTML, like Gecko) Mobile/15E148","398","708","420","","","","","","","","","","","","","","","","",""
"instructions","1","5716","0.0-1.0","1027","14","pre","5","afternoon","2026-03-22","2026-04-03","2026-03-27T00:14:02.680Z","Mozilla/5.0 (iPhone; CPU iPhone OS 18_6_2 like Mac OS X) AppleWebKit/605.1.15 (KHTML, like Gecko) Mobile/15E148","398","708","420","[{""page_index"":0,""viewing_time"":1831},{""page_index"":1,""viewing_time"":455},{""page_index"":2,""viewing_time"":625},{""page_index"":3,""viewing_time"":825}]","3737","","","","","","","","","","","","","","",""
"html-keyboard-response","2","6519","0.0-2.0-0.0","1027","14","pre","5","afternoon","2026-03-22","2026-04-03","2026-03-27T00:14:02.680Z","Mozilla/5.0 (iPhone; CPU iPhone OS 18_6_2 like Mac OS X) AppleWebKit/605.1.15 (KHTML, like Gecko) Mobile/15E148","398","708","420","","null","<div style=""font-size:60px;"">+</div>","null","fixation","","","","","","","","","","","",""
"html-button-response","3","8859","0.0-2.0-1.0","1027","14","pre","5","afternoon","2026-03-22","2026-04-03","2026-03-27T00:14:02.680Z","Mozilla/5.0 (iPhone; CPU iPhone OS 18_6_2 like Mac OS X) AppleWebKit/605.1.15 (KHTML, like Gecko) Mobile/15E148","398","708","420","","2337","<div class=""prompt"" style=""font-size:24px; margin-bottom:20px;"">Which word describes you more?</div>","0","pairing","1","enthusiastic","slob","PosNeg","91","51","positive","negative","40","enthusiastic","left","true"
"html-keyboard-response","4","9661","0.0-2.0-0.1","1027","14","pre","5","afternoon","2026-03-22","2026-04-03","2026-03-27T00:14:02.680Z","Mozilla/5.0 (iPhone; CPU iPhone OS 18_6_2 like Mac OS X) AppleWebKit/605.1.15 (KHTML, like Gecko) Mobile/15E148","398","708","420","","null","<div style=""font-size:60px;"">+</div>","null","fixation","","","","","","","","","","","",""
"html-button-response","5","11637","0.0-2.0-1.1","1027","14","pre","5","afternoon","2026-03-22","2026-04-03","2026-03-27T00:14:02.680Z","Mozilla/5.0 (iPhone; CPU iPhone OS 18_6_2 like Mac OS X) AppleWebKit/605.1.15 (KHTML, like Gecko) Mobile/15E148","398","708","420","","1972","<div class=""prompt"" style=""font-size:24px; margin-bottom:20px;"">Which word describes you more?</div>","1","pairing","2","spectacular","expert","PosPos","10","78","positive","positive","68","expert","right","true"
"html-keyboard-response","6","12439","0.0-2.0-0.2","1027","14","pre","5","afternoon","2026-03-22","2026-04-03","2026-03-27T00:14:02.680Z","Mozilla/5.0 (iPhone; CPU iPhone OS 18_6_2 like Mac OS X) AppleWebKit/605.1.15 (KHTML, like Gecko) Mobile/15E148","398","708","420","","null","<div style=""font-size:60px;"">+</div>","null","fixation","","","","","","","","","","","",""
"html-button-response","7","14316","0.0-2.0-1.2","1027","14","pre","5","afternoon","2026-03-22","2026-04-03","2026-03-27T00:14:02.680Z","Mozilla/5.0 (iPhone; CPU iPhone OS 18_6_2 like Mac OS X) AppleWebKit/605.1.15 (KHTML, like Gecko) Mobile/15E148","398","708","420","","1875","<div class=""prompt"" style=""font-size:24px; margin-bottom:20px;"">Which word describes you more?</div>","0","pairing","3","adorable","outcast","PosNeg","84","60","positive","negative","24","adorable","left","true"
"html-keyboard-response","8","15118","0.0-2.0-0.3","1027","14","pre","5","afternoon","2026-03-22","2026-04-03","2026-03-27T00:14:02.680Z","Mozilla/5.0 (iPhone; CPU iPhone OS 18_6_2 like Mac OS X) AppleWebKit/605.1.15 (KHTML, like Gecko) Mobile/15E148","398","708","420","","null","<div style=""font-size:60px;"">+</div>","null","fixation","","","","","","","","","","","",""
"html-button-response","9","16419","0.0-2.0-1.3","1027","14","pre","5","afternoon","2026-03-22","2026-04-03","2026-03-27T00:14:02.680Z","Mozilla/5.0 (iPhone; CPU iPhone OS 18_6_2 like Mac OS X) AppleWebKit/605.1.15 (KHTML, like Gecko) Mobile/15E148","398","708","420","","1299","<div class=""prompt"" style=""font-size:24px; margin-bottom:20px;"">Which word describes you more?</div>","1","pairing","4","carefree","seeker","PosPos","26","77","positive","positive","51","seeker","right","true"
"html-keyboard-response","10","17222","0.0-2.0-0.4","1027","14","pre","5","afternoon","2026-03-22","2026-04-03","2026-03-27T00:14:02.680Z","Mozilla/5.0 (iPhone; CPU iPhone OS 18_6_2 like Mac OS X) AppleWebKit/605.1.15 (KHTML, like Gecko) Mobile/15E148","398","708","420","","null","<div style=""font-size:60px;"">+</div>","null","fixation","","","","","","","","","","","",""
"html-button-response","11","18657","0.0-2.0-1.4","1027","14","pre","5","afternoon","2026-03-22","2026-04-03","2026-03-27T00:14:02.680Z","Mozilla/5.0 (iPhone; CPU iPhone OS 18_6_2 like Mac OS X) AppleWebKit/605.1.15 (KHTML, like Gecko) Mobile/15E148","398","708","420","","1433","<div class=""prompt"" style=""font-size:24px; margin-bottom:20px;"">Which word describes you more?</div>","0","pairing","5","satisfied","slob","PosNeg","41","51","positive","negative","10","satisfied","left","true"
"html-keyboard-response","12","19460","0.0-2.0-0.5","1027","14","pre","5","afternoon","2026-03-22","2026-04-03","2026-03-27T00:14:02.680Z","Mozilla/5.0 (iPhone; CPU iPhone OS 18_6_2 like Mac OS X) AppleWebKit/605.1.15 (KHTML, like Gecko) Mobile/15E148","398","708","420","","null","<div style=""font-size:60px;"">+</div>","null","fixation","","","","","","","","","","","",""
"html-button-response","13","20749","0.0-2.0-1.5","1027","14","pre","5","afternoon","2026-03-22","2026-04-03","2026-03-27T00:14:02.680Z","Mozilla/5.0 (iPhone; CPU iPhone OS 18_6_2 like Mac OS X) AppleWebKit/605.1.15 (KHTML, like Gecko) Mobile/15E148","398","708","420","","1288","<div class=""prompt"" style=""font-size:24px; margin-bottom:20px;"">Which word describes you more?</div>","0","pairing","6","heartbroken","delight","PosNeg","29","93","negative","positive","64","heartbroken","left","true"
"html-keyboard-response","14","21552","0.0-2.0-0.6","1027","14","pre","5","afternoon","2026-03-22","2026-04-03","2026-03-27T00:14:02.680Z","Mozilla/5.0 (iPhone; CPU iPhone OS 18_6_2 like Mac OS X) AppleWebKit/605.1.15 (KHTML, like Gecko) Mobile/15E148","398","708","420","","null","<div style=""font-size:60px;"">+</div>","null","fixation","","","","","","","","","","","",""
"html-button-response","15","24445","0.0-2.0-1.6","1027","14","pre","5","afternoon","2026-03-22","2026-04-03","2026-03-27T00:14:02.680Z","Mozilla/5.0 (iPhone; CPU iPhone OS 18_6_2 like Mac OS X) AppleWebKit/605.1.15 (KHTML, like Gecko) Mobile/15E148","398","708","420","","2889","<div class=""prompt"" style=""font-size:24px; margin-bottom:20px;"">Which word describes you more?</div>","0","pairing","7","peaceful","legendary","PosPos","69","12","positive","positive","57","peaceful","left","true"
"html-keyboard-response","16","25249","0.0-2.0-0.7","1027","14","pre","5","afternoon","2026-03-22","2026-04-03","2026-03-27T00:14:02.680Z","Mozilla/5.0 (iPhone; CPU iPhone OS 18_6_2 like Mac OS X) AppleWebKit/605.1.15 (KHTML, like Gecko) Mobile/15E148","398","708","420","","null","<div style=""font-size:60px;"">+</div>","null","fixation","","","","","","","","","","","",""
"html-button-response","17","27121","0.0-2.0-1.7","1027","14","pre","5","afternoon","2026-03-22","2026-04-03","2026-03-27T00:14:02.680Z","Mozilla/5.0 (iPhone; CPU iPhone OS 18_6_2 like Mac OS X) AppleWebKit/605.1.15 (KHTML, like Gecko) Mobile/15E148","398","708","420","","1868","<div class=""prompt"" style=""font-size:24px; margin-bottom:20px;"">Which word describes you more?</div>","1","pairing","8","problematic","outcast","NegNeg","0","60","negative","negative","60","outcast","right","true"
"html-keyboard-response","18","27925","0.0-2.0-0.8","1027","14","pre","5","afternoon","2026-03-22","2026-04-03","2026-03-27T00:14:02.680Z","Mozilla/5.0 (iPhone; CPU iPhone OS 18_6_2 like Mac OS X) AppleWebKit/605.1.15 (KHTML, like Gecko) Mobile/15E148","398","708","420","","null","<div style=""font-size:60px;"">+</div>","null","fixation","","","","","","","","","","","",""
"html-button-response","19","29748","0.0-2.0-1.8","1027","14","pre","5","afternoon","2026-03-22","2026-04-03","2026-03-27T00:14:02.680Z","Mozilla/5.0 (iPhone; CPU iPhone OS 18_6_2 like Mac OS X) AppleWebKit/605.1.15 (KHTML, like Gecko) Mobile/15E148","398","708","420","","1821","<div class=""prompt"" style=""font-size:24px; margin-bottom:20px;"">Which word describes you more?</div>","0","pairing","9","legendary","hesitant","PosNeg","12","51","positive","negative","39","legendary","left","true"
"html-keyboard-response","20","30550","0.0-2.0-0.9","1027","14","pre","5","afternoon","2026-03-22","2026-04-03","2026-03-27T00:14:02.680Z","Mozilla/5.0 (iPhone; CPU iPhone OS 18_6_2 like Mac OS X) AppleWebKit/605.1.15 (KHTML, like Gecko) Mobile/15E148","398","708","420","","null","<div style=""font-size:60px;"">+</div>","null","fixation","","","","","","","","","","","",""
"html-button-response","21","32216","0.0-2.0-1.9","1027","14","pre","5","afternoon","2026-03-22","2026-04-03","2026-03-27T00:14:02.680Z","Mozilla/5.0 (iPhone; CPU iPhone OS 18_6_2 like Mac OS X) AppleWebKit/605.1.15 (KHTML, like Gecko) Mobile/15E148","398","708","420","","1664","<div class=""prompt"" style=""font-size:24px; margin-bottom:20px;"">Which word describes you more?</div>","1","pairing","10","stingy","satisfied","PosNeg","10","41","negative","positive","31","satisfied","right","true"
"html-keyboard-response","22","33023","0.0-2.0-0.10","1027","14","pre","5","afternoon","2026-03-22","2026-04-03","2026-03-27T00:14:02.680Z","Mozilla/5.0 (iPhone; CPU iPhone OS 18_6_2 like Mac OS X) AppleWebKit/605.1.15 (KHTML, like Gecko) Mobile/15E148","398","708","420","","null","<div style=""font-size:60px;"">+</div>","null","fixation","","","","","","","","","","","",""
"html-button-response","23","35378","0.0-2.0-1.10","1027","14","pre","5","afternoon","2026-03-22","2026-04-03","2026-03-27T00:14:02.680Z","Mozilla/5.0 (iPhone; CPU iPhone OS 18_6_2 like Mac OS X) AppleWebKit/605.1.15 (KHTML, like Gecko) Mobile/15E148","398","708","420","","2353","<div class=""prompt"" style=""font-size:24px; margin-bottom:20px;"">Which word describes you more?</div>","1","pairing","11","idealistic","virtuous","PosPos","74","89","positive","positive","15","virtuous","right","true"
"html-keyboard-response","24","36182","0.0-2.0-0.11","1027","14","pre","5","afternoon","2026-03-22","2026-04-03","2026-03-27T00:14:02.680Z","Mozilla/5.0 (iPhone; CPU iPhone OS 18_6_2 like Mac OS X) AppleWebKit/605.1.15 (KHTML, like Gecko) Mobile/15E148","398","708","420","","null","<div style=""font-size:60px;"">+</div>","null","fixation","","","","","","","","","","","",""
"html-button-response","25","38428","0.0-2.0-1.11","1027","14","pre","5","afternoon","2026-03-22","2026-04-03","2026-03-27T00:14:02.680Z","Mozilla/5.0 (iPhone; CPU iPhone OS 18_6_2 like Mac OS X) AppleWebKit/605.1.15 (KHTML, like Gecko) Mobile/15E148","398","708","420","","2244","<div class=""prompt"" style=""font-size:24px; margin-bottom:20px;"">Which word describes you more?</div>","0","pairing","12","attractive","repulsive","PosNeg","66","0","positive","negative","66","attractive","left","true"
"html-keyboard-response","26","39230","0.0-2.0-0.12","1027","14","pre","5","afternoon","2026-03-22","2026-04-03","2026-03-27T00:14:02.680Z","Mozilla/5.0 (iPhone; CPU iPhone OS 18_6_2 like Mac OS X) AppleWebKit/605.1.15 (KHTML, like Gecko) Mobile/15E148","398","708","420","","null","<div style=""font-size:60px;"">+</div>","null","fixation","","","","","","","","","","","",""
"html-button-response","27","40641","0.0-2.0-1.12","1027","14","pre","5","afternoon","2026-03-22","2026-04-03","2026-03-27T00:14:02.680Z","Mozilla/5.0 (iPhone; CPU iPhone OS 18_6_2 like Mac OS X) AppleWebKit/605.1.15 (KHTML, like Gecko) Mobile/15E148","398","708","420","","1409","<div class=""prompt"" style=""font-size:24px; margin-bottom:20px;"">Which word describes you more?</div>","1","pairing","13","toxic","admired","PosNeg","0","92","negative","positive","92","admired","right","true"
"html-keyboard-response","28","41444","0.0-2.0-0.13","1027","14","pre","5","afternoon","2026-03-22","2026-04-03","2026-03-27T00:14:02.680Z","Mozilla/5.0 (iPhone; CPU iPhone OS 18_6_2 like Mac OS X) AppleWebKit/605.1.15 (KHTML, like Gecko) Mobile/15E148","398","708","420","","null","<div style=""font-size:60px;"">+</div>","null","fixation","","","","","","","","","","","",""
"html-button-response","29","43384","0.0-2.0-1.13","1027","14","pre","5","afternoon","2026-03-22","2026-04-03","2026-03-27T00:14:02.680Z","Mozilla/5.0 (iPhone; CPU iPhone OS 18_6_2 like Mac OS X) AppleWebKit/605.1.15 (KHTML, like Gecko) Mobile/15E148","398","708","420","","1938","<div class=""prompt"" style=""font-size:24px; margin-bottom:20px;"">Which word describes you more?</div>","1","pairing","14","anxious","flawless","PosNeg","55","0","negative","positive","55","flawless","right","true"
"html-keyboard-response","30","44186","0.0-2.0-0.14","1027","14","pre","5","afternoon","2026-03-22","2026-04-03","2026-03-27T00:14:02.680Z","Mozilla/5.0 (iPhone; CPU iPhone OS 18_6_2 like Mac OS X) AppleWebKit/605.1.15 (KHTML, like Gecko) Mobile/15E148","398","708","420","","null","<div style=""font-size:60px;"">+</div>","null","fixation","","","","","","","","","","","",""
"html-button-response","31","46355","0.0-2.0-1.14","1027","14","pre","5","afternoon","2026-03-22","2026-04-03","2026-03-27T00:14:02.680Z","Mozilla/5.0 (iPhone; CPU iPhone OS 18_6_2 like Mac OS X) AppleWebKit/605.1.15 (KHTML, like Gecko) Mobile/15E148","398","708","420","","2167","<div class=""prompt"" style=""font-size:24px; margin-bottom:20px;"">Which word describes you more?</div>","0","pairing","15","hesitant","lifeless","NegNeg","51","1","negative","negative","50","hesitant","left","true"
"html-keyboard-response","32","47157","0.0-2.0-0.15","1027","14","pre","5","afternoon","2026-03-22","2026-04-03","2026-03-27T00:14:02.680Z","Mozilla/5.0 (iPhone; CPU iPhone OS 18_6_2 like Mac OS X) AppleWebKit/605.1.15 (KHTML, like Gecko) Mobile/15E148","398","708","420","","null","<div style=""font-size:60px;"">+</div>","null","fixation","","","","","","","","","","","",""
"html-button-response","33","49226","0.0-2.0-1.15","1027","14","pre","5","afternoon","2026-03-22","2026-04-03","2026-03-27T00:14:02.680Z","Mozilla/5.0 (iPhone; CPU iPhone OS 18_6_2 like Mac OS X) AppleWebKit/605.1.15 (KHTML, like Gecko) Mobile/15E148","398","708","420","","2068","<div class=""prompt"" style=""font-size:24px; margin-bottom:20px;"">Which word describes you more?</div>","1","pairing","16","rude","esteemed","PosNeg","0","82","negative","positive","82","esteemed","right","true"
"html-keyboard-response","34","50028","0.0-2.0-0.16","1027","14","pre","5","afternoon","2026-03-22","2026-04-03","2026-03-27T00:14:02.680Z","Mozilla/5.0 (iPhone; CPU iPhone OS 18_6_2 like Mac OS X) AppleWebKit/605.1.15 (KHTML, like Gecko) Mobile/15E148","398","708","420","","null","<div style=""font-size:60px;"">+</div>","null","fixation","","","","","","","","","","","",""
"html-button-response","35","51427","0.0-2.0-1.16","1027","14","pre","5","afternoon","2026-03-22","2026-04-03","2026-03-27T00:14:02.680Z","Mozilla/5.0 (iPhone; CPU iPhone OS 18_6_2 like Mac OS X) AppleWebKit/605.1.15 (KHTML, like Gecko) Mobile/15E148","398","708","420","","1396","<div class=""prompt"" style=""font-size:24px; margin-bottom:20px;"">Which word describes you more?</div>","1","pairing","17","delight","valued","PosPos","93","88","positive","positive","5","valued","right","true"
"html-keyboard-response","36","52230","0.0-2.0-0.17","1027","14","pre","5","afternoon","2026-03-22","2026-04-03","2026-03-27T00:14:02.680Z","Mozilla/5.0 (iPhone; CPU iPhone OS 18_6_2 like Mac OS X) AppleWebKit/605.1.15 (KHTML, like Gecko) Mobile/15E148","398","708","420","","null","<div style=""font-size:60px;"">+</div>","null","fixation","","","","","","","","","","","",""
"html-button-response","37","53773","0.0-2.0-1.17","1027","14","pre","5","afternoon","2026-03-22","2026-04-03","2026-03-27T00:14:02.680Z","Mozilla/5.0 (iPhone; CPU iPhone OS 18_6_2 like Mac OS X) AppleWebKit/605.1.15 (KHTML, like Gecko) Mobile/15E148","398","708","420","","1541","<div class=""prompt"" style=""font-size:24px; margin-bottom:20px;"">Which word describes you more?</div>","0","pairing","18","honest","hateful","PosNeg","98","0","positive","negative","98","honest","left","true"
"html-keyboard-response","38","54575","0.0-2.0-0.18","1027","14","pre","5","afternoon","2026-03-22","2026-04-03","2026-03-27T00:14:02.680Z","Mozilla/5.0 (iPhone; CPU iPhone OS 18_6_2 like Mac OS X) AppleWebKit/605.1.15 (KHTML, like Gecko) Mobile/15E148","398","708","420","","null","<div style=""font-size:60px;"">+</div>","null","fixation","","","","","","","","","","","",""
"html-button-response","39","56541","0.0-2.0-1.18","1027","14","pre","5","afternoon","2026-03-22","2026-04-03","2026-03-27T00:14:02.680Z","Mozilla/5.0 (iPhone; CPU iPhone OS 18_6_2 like Mac OS X) AppleWebKit/605.1.15 (KHTML, like Gecko) Mobile/15E148","398","708","420","","1965","<div class=""prompt"" style=""font-size:24px; margin-bottom:20px;"">Which word describes you more?</div>","1","pairing","19","esteemed","spectacular","PosPos","82","10","positive","positive","72","spectacular","right","true"
"html-keyboard-response","40","57344","0.0-2.0-0.19","1027","14","pre","5","afternoon","2026-03-22","2026-04-03","2026-03-27T00:14:02.680Z","Mozilla/5.0 (iPhone; CPU iPhone OS 18_6_2 like Mac OS X) AppleWebKit/605.1.15 (KHTML, like Gecko) Mobile/15E148","398","708","420","","null","<div style=""font-size:60px;"">+</div>","null","fixation","","","","","","","","","","","",""
"html-button-response","41","60036","0.0-2.0-1.19","1027","14","pre","5","afternoon","2026-03-22","2026-04-03","2026-03-27T00:14:02.680Z","Mozilla/5.0 (iPhone; CPU iPhone OS 18_6_2 like Mac OS X) AppleWebKit/605.1.15 (KHTML, like Gecko) Mobile/15E148","398","708","420","","2691","<div class=""prompt"" style=""font-size:24px; margin-bottom:20px;"">Which word describes you more?</div>","1","pairing","20","awful","alone","NegNeg","0","1","negative","negative","1","alone","right","true"
"html-keyboard-response","42","60839","0.0-2.0-0.20","1027","14","pre","5","afternoon","2026-03-22","2026-04-03","2026-03-27T00:14:02.680Z","Mozilla/5.0 (iPhone; CPU iPhone OS 18_6_2 like Mac OS X) AppleWebKit/605.1.15 (KHTML, like Gecko) Mobile/15E148","398","708","420","","null","<div style=""font-size:60px;"">+</div>","null","fixation","","","","","","","","","","","",""
"html-button-response","43","62170","0.0-2.0-1.20","1027","14","pre","5","afternoon","2026-03-22","2026-04-03","2026-03-27T00:14:02.680Z","Mozilla/5.0 (iPhone; CPU iPhone OS 18_6_2 like Mac OS X) AppleWebKit/605.1.15 (KHTML, like Gecko) Mobile/15E148","398","708","420","","1330","<div class=""prompt"" style=""font-size:24px; margin-bottom:20px;"">Which word describes you more?</div>","1","pairing","21","bully","prick","NegNeg","1","0","negative","negative","1","prick","right","true"
"html-keyboard-response","44","62973","0.0-2.0-0.21","1027","14","pre","5","afternoon","2026-03-22","2026-04-03","2026-03-27T00:14:02.680Z","Mozilla/5.0 (iPhone; CPU iPhone OS 18_6_2 like Mac OS X) AppleWebKit/605.1.15 (KHTML, like Gecko) Mobile/15E148","398","708","420","","null","<div style=""font-size:60px;"">+</div>","null","fixation","","","","","","","","","","","",""
"html-button-response","45","65751","0.0-2.0-1.21","1027","14","pre","5","afternoon","2026-03-22","2026-04-03","2026-03-27T00:14:02.680Z","Mozilla/5.0 (iPhone; CPU iPhone OS 18_6_2 like Mac OS X) AppleWebKit/605.1.15 (KHTML, like Gecko) Mobile/15E148","398","708","420","","2777","<div class=""prompt"" style=""font-size:24px; margin-bottom:20px;"">Which word describes you more?</div>","1","pairing","22","creep","slob","NegNeg","0","51","negative","negative","51","slob","right","true"
"html-keyboard-response","46","66554","0.0-2.0-0.22","1027","14","pre","5","afternoon","2026-03-22","2026-04-03","2026-03-27T00:14:02.680Z","Mozilla/5.0 (iPhone; CPU iPhone OS 18_6_2 like Mac OS X) AppleWebKit/605.1.15 (KHTML, like Gecko) Mobile/15E148","398","708","420","","null","<div style=""font-size:60px;"">+</div>","null","fixation","","","","","","","","","","","",""
"html-button-response","47","68577","0.0-2.0-1.22","1027","14","pre","5","afternoon","2026-03-22","2026-04-03","2026-03-27T00:14:02.680Z","Mozilla/5.0 (iPhone; CPU iPhone OS 18_6_2 like Mac OS X) AppleWebKit/605.1.15 (KHTML, like Gecko) Mobile/15E148","398","708","420","","2021","<div class=""prompt"" style=""font-size:24px; margin-bottom:20px;"">Which word describes you more?</div>","1","pairing","23","uninvited","flawless","PosNeg","6","0","negative","positive","6","flawless","right","true"
"html-keyboard-response","48","69379","0.0-2.0-0.23","1027","14","pre","5","afternoon","2026-03-22","2026-04-03","2026-03-27T00:14:02.680Z","Mozilla/5.0 (iPhone; CPU iPhone OS 18_6_2 like Mac OS X) AppleWebKit/605.1.15 (KHTML, like Gecko) Mobile/15E148","398","708","420","","null","<div style=""font-size:60px;"">+</div>","null","fixation","","","","","","","","","","","",""
"html-button-response","49","72103","0.0-2.0-1.23","1027","14","pre","5","afternoon","2026-03-22","2026-04-03","2026-03-27T00:14:02.680Z","Mozilla/5.0 (iPhone; CPU iPhone OS 18_6_2 like Mac OS X) AppleWebKit/605.1.15 (KHTML, like Gecko) Mobile/15E148","398","708","420","","2723","<div class=""prompt"" style=""font-size:24px; margin-bottom:20px;"">Which word describes you more?</div>","0","pairing","24","pest","unwanted","NegNeg","2","0","negative","negative","2","pest","left","true"
"instructions","50","73052","0.0-3.0","1027","14","pre","5","afternoon","2026-03-22","2026-04-03","2026-03-27T00:14:02.680Z","Mozilla/5.0 (iPhone; CPU iPhone OS 18_6_2 like Mac OS X) AppleWebKit/605.1.15 (KHTML, like Gecko) Mobile/15E148","398","708","420","[{""page_index"":0,""viewing_time"":947}]","947","","","","","","","","","","","","","","",""
