"trial_type","trial_index","time_elapsed","internal_node_id","BASE_QUALTRICS_ID","PUNS_ID","baseline_date","baseline_time","session_day","session_slot","experiment_start","browser","screen_width","screen_height","timezone_offset","view_history","rt","stimulus","response","trial_number","left_word","right_word","valence","left_base_rating","right_base_rating","left_valence","right_valence","abs_diff","participant_response","chosen_side","valid_response","which_experiment_phase"
"pavlovia","0","757","0.0-0.0","","1001","2025-09-22","21:22:42.054Z","day5","morning","2025-09-26T04:17:39.146Z","Mozilla/5.0 (iPhone; CPU iPhone OS 17_6_1 like Mac OS X) AppleWebKit/605.1.15 (KHTML, like Gecko) Version/17.6 Mobile/15E148 Safari/604.1","390","663","240","","","","","","","","","","","","","","","","",""
"instructions","1","16192","0.0-1.0","","1001","2025-09-22","21:22:42.054Z","day5","morning","2025-09-26T04:17:39.146Z","Mozilla/5.0 (iPhone; CPU iPhone OS 17_6_1 like Mac OS X) AppleWebKit/605.1.15 (KHTML, like Gecko) Version/17.6 Mobile/15E148 Safari/604.1","390","663","240","[{""page_index"":0,""viewing_time"":4093},{""page_index"":1,""viewing_time"":2807},{""page_index"":2,""viewing_time"":3723},{""page_index"":3,""viewing_time"":4808}]","15431","","","","","","","","","","","","","","",""
"html-button-response","2","24196","0.0-2.0-0.0","","1001","2025-09-22","21:22:42.054Z","day5","morning","2025-09-26T04:17:39.146Z","Mozilla/5.0 (iPhone; CPU iPhone OS 17_6_1 like Mac OS X) AppleWebKit/605.1.15 (KHTML, like Gecko) Version/17.6 Mobile/15E148 Safari/604.1","390","663","240","","null","<div class=""prompt"">Which word describes you more?</div>","null","1","empty","achiever","PosNeg","93","18","negative","positive","75","null","null","false","pairing"
"html-button-response","3","32200","0.0-2.0-0.1","","1001","2025-09-22","21:22:42.054Z","day5","morning","2025-09-26T04:17:39.146Z","Mozilla/5.0 (iPhone; CPU iPhone OS 17_6_1 like Mac OS X) AppleWebKit/605.1.15 (KHTML, like Gecko) Version/17.6 Mobile/15E148 Safari/604.1","390","663","240","","null","<div class=""prompt"">Which word describes you more?</div>","null","2","jerk","spontaneous","PosNeg","46","55","negative","positive","9","null","null","false","pairing"
"html-button-response","4","40204","0.0-2.0-0.2","","1001","2025-09-22","21:22:42.054Z","day5","morning","2025-09-26T04:17:39.146Z","Mozilla/5.0 (iPhone; CPU iPhone OS 17_6_1 like Mac OS X) AppleWebKit/605.1.15 (KHTML, like Gecko) Version/17.6 Mobile/15E148 Safari/604.1","390","663","240","","null","<div class=""prompt"">Which word describes you more?</div>","null","3","degenerate","visionary","PosNeg","66","52","negative","positive","14","null","null","false","pairing"
"html-button-response","5","48209","0.0-2.0-0.3","","1001","2025-09-22","21:22:42.054Z","day5","morning","2025-09-26T04:17:39.146Z","Mozilla/5.0 (iPhone; CPU iPhone OS 17_6_1 like Mac OS X) AppleWebKit/605.1.15 (KHTML, like Gecko) Version/17.6 Mobile/15E148 Safari/604.1","390","663","240","","null","<div class=""prompt"">Which word describes you more?</div>","null","4","valued","alluring","PosPos","38","74","positive","positive","36","null","null","false","pairing"
"html-button-response","6","56312","0.0-2.0-0.4","","1001","2025-09-22","21:22:42.054Z","day5","morning","2025-09-26T04:17:39.146Z","Mozilla/5.0 (iPhone; CPU iPhone OS 17_6_1 like Mac OS X) AppleWebKit/605.1.15 (KHTML, like Gecko) Version/17.6 Mobile/15E148 Safari/604.1","390","663","240","","null","<div class=""prompt"">Which word describes you more?</div>","null","5","ambitious","incompetent","PosNeg","63","17","positive","negative","46","null","null","false","pairing"
"html-button-response","7","64412","0.0-2.0-0.5","","1001","2025-09-22","21:22:42.054Z","day5","morning","2025-09-26T04:17:39.146Z","Mozilla/5.0 (iPhone; CPU iPhone OS 17_6_1 like Mac OS X) AppleWebKit/605.1.15 (KHTML, like Gecko) Version/17.6 Mobile/15E148 Safari/604.1","390","663","240","","null","<div class=""prompt"">Which word describes you more?</div>","null","6","untrustworthy","valued","PosNeg","51","38","negative","positive","13","null","null","false","pairing"
"html-button-response","8","72472","0.0-2.0-0.6","","1001","2025-09-22","21:22:42.054Z","day5","morning","2025-09-26T04:17:39.146Z","Mozilla/5.0 (iPhone; CPU iPhone OS 17_6_1 like Mac OS X) AppleWebKit/605.1.15 (KHTML, like Gecko) Version/17.6 Mobile/15E148 Safari/604.1","390","663","240","","null","<div class=""prompt"">Which word describes you more?</div>","null","7","bitter","defective","NegNeg","67","17","negative","negative","50","null","null","false","pairing"
"html-button-response","9","94675","0.0-2.0-0.7","","1001","2025-09-22","21:22:42.054Z","day5","morning","2025-09-26T04:17:39.146Z","Mozilla/5.0 (iPhone; CPU iPhone OS 17_6_1 like Mac OS X) AppleWebKit/605.1.15 (KHTML, like Gecko) Version/17.6 Mobile/15E148 Safari/604.1","390","663","240","","null","<div class=""prompt"">Which word describes you more?</div>","null","8","humorous","fun","PosPos","55","61","positive","positive","6","null","null","false","pairing"
"html-button-response","10","95945","0.0-2.0-0.8","","1001","2025-09-22","21:22:42.054Z","day5","morning","2025-09-26T04:17:39.146Z","Mozilla/5.0 (iPhone; CPU iPhone OS 17_6_1 like Mac OS X) AppleWebKit/605.1.15 (KHTML, like Gecko) Version/17.6 Mobile/15E148 Safari/604.1","390","663","240","","1265","<div class=""prompt"">Which word describes you more?</div>","1","9","devoted","outcast","PosNeg","30","68","positive","negative","38","outcast","right","true","pairing"
"html-button-response","11","96419","0.0-2.0-0.9","","1001","2025-09-22","21:22:42.054Z","day5","morning","2025-09-26T04:17:39.146Z","Mozilla/5.0 (iPhone; CPU iPhone OS 17_6_1 like Mac OS X) AppleWebKit/605.1.15 (KHTML, like Gecko) Version/17.6 Mobile/15E148 Safari/604.1","390","663","240","","473","<div class=""prompt"">Which word describes you more?</div>","0","10","valued","hesitant","PosNeg","38","58","positive","negative","20","valued","left","true","pairing"
"html-button-response","12","96871","0.0-2.0-0.10","","1001","2025-09-22","21:22:42.054Z","day5","morning","2025-09-26T04:17:39.146Z","Mozilla/5.0 (iPhone; CPU iPhone OS 17_6_1 like Mac OS X) AppleWebKit/605.1.15 (KHTML, like Gecko) Version/17.6 Mobile/15E148 Safari/604.1","390","663","240","","451","<div class=""prompt"">Which word describes you more?</div>","0","11","humorous","anxious","PosNeg","55","63","positive","negative","8","humorous","left","true","pairing"
"html-button-response","13","97404","0.0-2.0-0.11","","1001","2025-09-22","21:22:42.054Z","day5","morning","2025-09-26T04:17:39.146Z","Mozilla/5.0 (iPhone; CPU iPhone OS 17_6_1 like Mac OS X) AppleWebKit/605.1.15 (KHTML, like Gecko) Version/17.6 Mobile/15E148 Safari/604.1","390","663","240","","532","<div class=""prompt"">Which word describes you more?</div>","0","12","shameful","devoted","PosNeg","61","30","negative","positive","31","shameful","left","true","pairing"
"html-button-response","14","98040","0.0-2.0-0.12","","1001","2025-09-22","21:22:42.054Z","day5","morning","2025-09-26T04:17:39.146Z","Mozilla/5.0 (iPhone; CPU iPhone OS 17_6_1 like Mac OS X) AppleWebKit/605.1.15 (KHTML, like Gecko) Version/17.6 Mobile/15E148 Safari/604.1","390","663","240","","635","<div class=""prompt"">Which word describes you more?</div>","1","13","regretful","fun","PosNeg","8","61","negative","positive","53","fun","right","true","pairing"
"html-button-response","15","98741","0.0-2.0-0.13","","1001","2025-09-22","21:22:42.054Z","day5","morning","2025-09-26T04:17:39.146Z","Mozilla/5.0 (iPhone; CPU iPhone OS 17_6_1 like Mac OS X) AppleWebKit/605.1.15 (KHTML, like Gecko) Version/17.6 Mobile/15E148 Safari/604.1","390","663","240","","699","<div class=""prompt"">Which word describes you more?</div>","1","14","seeker","gloomy","PosNeg","20","18","positive","negative","2","gloomy","right","true","pairing"
"html-button-response","16","99243","0.0-2.0-0.14","","1001","2025-09-22","21:22:42.054Z","day5","morning","2025-09-26T04:17:39.146Z","Mozilla/5.0 (iPhone; CPU iPhone OS 17_6_1 like Mac OS X) AppleWebKit/605.1.15 (KHTML, like Gecko) Version/17.6 Mobile/15E148 Safari/604.1","390","663","240","","500","<div class=""prompt"">Which word describes you more?</div>","0","15","miserable","asset","PosNeg","20","48","negative","positive","28","miserable","left","true","pairing"
"html-button-response","17","99827","0.0-2.0-0.15","","1001","2025-09-22","21:22:42.054Z","day5","morning","2025-09-26T04:17:39.146Z","Mozilla/5.0 (iPhone; CPU iPhone OS 17_6_1 like Mac OS X) AppleWebKit/605.1.15 (KHTML, like Gecko) Version/17.6 Mobile/15E148 Safari/604.1","390","663","240","","581","<div class=""prompt"">Which word describes you more?</div>","1","16","disgusting","adventurous","PosNeg","49","48","negative","positive","1","adventurous","right","true","pairing"
"html-button-response","18","100312","0.0-2.0-0.16","","1001","2025-09-22","21:22:42.054Z","day5","morning","2025-09-26T04:17:39.146Z","Mozilla/5.0 (iPhone; CPU iPhone OS 17_6_1 like Mac OS X) AppleWebKit/605.1.15 (KHTML, like Gecko) Version/17.6 Mobile/15E148 Safari/604.1","390","663","240","","483","<div class=""prompt"">Which word describes you more?</div>","0","17","garbage","brave","PosNeg","81","44","negative","positive","37","garbage","left","true","pairing"
"html-button-response","19","100830","0.0-2.0-0.17","","1001","2025-09-22","21:22:42.054Z","day5","morning","2025-09-26T04:17:39.146Z","Mozilla/5.0 (iPhone; CPU iPhone OS 17_6_1 like Mac OS X) AppleWebKit/605.1.15 (KHTML, like Gecko) Version/17.6 Mobile/15E148 Safari/604.1","390","663","240","","516","<div class=""prompt"">Which word describes you more?</div>","0","18","easygoing","failure","PosNeg","48","35","positive","negative","13","easygoing","left","true","pairing"
"html-button-response","20","101365","0.0-2.0-0.18","","1001","2025-09-22","21:22:42.054Z","day5","morning","2025-09-26T04:17:39.146Z","Mozilla/5.0 (iPhone; CPU iPhone OS 17_6_1 like Mac OS X) AppleWebKit/605.1.15 (KHTML, like Gecko) Version/17.6 Mobile/15E148 Safari/604.1","390","663","240","","531","<div class=""prompt"">Which word describes you more?</div>","1","19","disastrous","menace","NegNeg","71","49","negative","negative","22","menace","right","true","pairing"
"html-button-response","21","101879","0.0-2.0-0.19","","1001","2025-09-22","21:22:42.054Z","day5","morning","2025-09-26T04:17:39.146Z","Mozilla/5.0 (iPhone; CPU iPhone OS 17_6_1 like Mac OS X) AppleWebKit/605.1.15 (KHTML, like Gecko) Version/17.6 Mobile/15E148 Safari/604.1","390","663","240","","513","<div class=""prompt"">Which word describes you more?</div>","0","20","witty","garbage","PosNeg","13","81","positive","negative","68","witty","left","true","pairing"
"instructions","22","102971","0.0-3.0","","1001","2025-09-22","21:22:42.054Z","day5","morning","2025-09-26T04:17:39.146Z","Mozilla/5.0 (iPhone; CPU iPhone OS 17_6_1 like Mac OS X) AppleWebKit/605.1.15 (KHTML, like Gecko) Version/17.6 Mobile/15E148 Safari/604.1","390","663","240","[{""page_index"":0,""viewing_time"":1090}]","1091","","","","","","","","","","","","","","",""
