"trial_type","trial_index","time_elapsed","internal_node_id","PUNS_ID","session_number","session_phase","session_day","session_slot","ema_start_date","ema_post_start_date","experiment_start","browser","screen_width","screen_height","timezone_offset","view_history","rt","stimulus","response","which_experiment_phase","trial_number","left_word","right_word","valence","left_base_rating","right_base_rating","left_valence","right_valence","abs_diff","participant_response","chosen_side","valid_response"
"pavlovia","0","1296","0.0-0.0","1065","29","pre","10","afternoon","2026-05-05","2026-05-19","2026-05-14T16:40:52.638Z","Mozilla/5.0 (iPhone; CPU iPhone OS 18_7 like Mac OS X) AppleWebKit/605.1.15 (KHTML, like Gecko) Mobile/15E148","396","714","240","","","","","","","","","","","","","","","","",""
"instructions","1","5234","0.0-1.0","1065","29","pre","10","afternoon","2026-05-05","2026-05-19","2026-05-14T16:40:52.638Z","Mozilla/5.0 (iPhone; CPU iPhone OS 18_7 like Mac OS X) AppleWebKit/605.1.15 (KHTML, like Gecko) Mobile/15E148","396","714","240","[{""page_index"":0,""viewing_time"":953},{""page_index"":1,""viewing_time"":778},{""page_index"":2,""viewing_time"":589},{""page_index"":3,""viewing_time"":1612}]","3933","","","","","","","","","","","","","","",""
"html-keyboard-response","2","6038","0.0-2.0-0.0","1065","29","pre","10","afternoon","2026-05-05","2026-05-19","2026-05-14T16:40:52.638Z","Mozilla/5.0 (iPhone; CPU iPhone OS 18_7 like Mac OS X) AppleWebKit/605.1.15 (KHTML, like Gecko) Mobile/15E148","396","714","240","","null","<div style=""font-size:60px;"">+</div>","null","fixation","","","","","","","","","","","",""
"html-button-response","3","7084","0.0-2.0-1.0","1065","29","pre","10","afternoon","2026-05-05","2026-05-19","2026-05-14T16:40:52.638Z","Mozilla/5.0 (iPhone; CPU iPhone OS 18_7 like Mac OS X) AppleWebKit/605.1.15 (KHTML, like Gecko) Mobile/15E148","396","714","240","","1040","<div class=""prompt"" style=""font-size:24px; margin-bottom:20px;"">Which word describes you more?</div>","0","pairing","1","adventurous","irresponsible","PosNeg","40","33","positive","negative","7","adventurous","left","true"
"html-keyboard-response","4","7887","0.0-2.0-0.1","1065","29","pre","10","afternoon","2026-05-05","2026-05-19","2026-05-14T16:40:52.638Z","Mozilla/5.0 (iPhone; CPU iPhone OS 18_7 like Mac OS X) AppleWebKit/605.1.15 (KHTML, like Gecko) Mobile/15E148","396","714","240","","null","<div style=""font-size:60px;"">+</div>","null","fixation","","","","","","","","","","","",""
"html-button-response","5","8949","0.0-2.0-1.1","1065","29","pre","10","afternoon","2026-05-05","2026-05-19","2026-05-14T16:40:52.638Z","Mozilla/5.0 (iPhone; CPU iPhone OS 18_7 like Mac OS X) AppleWebKit/605.1.15 (KHTML, like Gecko) Mobile/15E148","396","714","240","","1058","<div class=""prompt"" style=""font-size:24px; margin-bottom:20px;"">Which word describes you more?</div>","0","pairing","2","anxious","sophisticated","PosNeg","81","38","negative","positive","43","anxious","left","true"
"html-keyboard-response","6","9752","0.0-2.0-0.2","1065","29","pre","10","afternoon","2026-05-05","2026-05-19","2026-05-14T16:40:52.638Z","Mozilla/5.0 (iPhone; CPU iPhone OS 18_7 like Mac OS X) AppleWebKit/605.1.15 (KHTML, like Gecko) Mobile/15E148","396","714","240","","null","<div style=""font-size:60px;"">+</div>","null","fixation","","","","","","","","","","","",""
"html-button-response","7","11075","0.0-2.0-1.2","1065","29","pre","10","afternoon","2026-05-05","2026-05-19","2026-05-14T16:40:52.638Z","Mozilla/5.0 (iPhone; CPU iPhone OS 18_7 like Mac OS X) AppleWebKit/605.1.15 (KHTML, like Gecko) Mobile/15E148","396","714","240","","1321","<div class=""prompt"" style=""font-size:24px; margin-bottom:20px;"">Which word describes you more?</div>","0","pairing","3","appealing","flawless","PosPos","83","0","positive","positive","83","appealing","left","true"
"html-keyboard-response","8","11878","0.0-2.0-0.3","1065","29","pre","10","afternoon","2026-05-05","2026-05-19","2026-05-14T16:40:52.638Z","Mozilla/5.0 (iPhone; CPU iPhone OS 18_7 like Mac OS X) AppleWebKit/605.1.15 (KHTML, like Gecko) Mobile/15E148","396","714","240","","null","<div style=""font-size:60px;"">+</div>","null","fixation","","","","","","","","","","","",""
"html-button-response","9","13191","0.0-2.0-1.3","1065","29","pre","10","afternoon","2026-05-05","2026-05-19","2026-05-14T16:40:52.638Z","Mozilla/5.0 (iPhone; CPU iPhone OS 18_7 like Mac OS X) AppleWebKit/605.1.15 (KHTML, like Gecko) Mobile/15E148","396","714","240","","1311","<div class=""prompt"" style=""font-size:24px; margin-bottom:20px;"">Which word describes you more?</div>","0","pairing","4","regretful","eloquent","PosNeg","56","73","negative","positive","17","regretful","left","true"
"html-keyboard-response","10","13994","0.0-2.0-0.4","1065","29","pre","10","afternoon","2026-05-05","2026-05-19","2026-05-14T16:40:52.638Z","Mozilla/5.0 (iPhone; CPU iPhone OS 18_7 like Mac OS X) AppleWebKit/605.1.15 (KHTML, like Gecko) Mobile/15E148","396","714","240","","null","<div style=""font-size:60px;"">+</div>","null","fixation","","","","","","","","","","","",""
"html-button-response","11","15525","0.0-2.0-1.4","1065","29","pre","10","afternoon","2026-05-05","2026-05-19","2026-05-14T16:40:52.638Z","Mozilla/5.0 (iPhone; CPU iPhone OS 18_7 like Mac OS X) AppleWebKit/605.1.15 (KHTML, like Gecko) Mobile/15E148","396","714","240","","1526","<div class=""prompt"" style=""font-size:24px; margin-bottom:20px;"">Which word describes you more?</div>","0","pairing","5","incompetent","defective","NegNeg","21","0","negative","negative","21","incompetent","left","true"
"html-keyboard-response","12","16329","0.0-2.0-0.5","1065","29","pre","10","afternoon","2026-05-05","2026-05-19","2026-05-14T16:40:52.638Z","Mozilla/5.0 (iPhone; CPU iPhone OS 18_7 like Mac OS X) AppleWebKit/605.1.15 (KHTML, like Gecko) Mobile/15E148","396","714","240","","null","<div style=""font-size:60px;"">+</div>","null","fixation","","","","","","","","","","","",""
"html-button-response","13","17448","0.0-2.0-1.5","1065","29","pre","10","afternoon","2026-05-05","2026-05-19","2026-05-14T16:40:52.638Z","Mozilla/5.0 (iPhone; CPU iPhone OS 18_7 like Mac OS X) AppleWebKit/605.1.15 (KHTML, like Gecko) Mobile/15E148","396","714","240","","1116","<div class=""prompt"" style=""font-size:24px; margin-bottom:20px;"">Which word describes you more?</div>","0","pairing","6","irritating","unlucky","NegNeg","35","0","negative","negative","35","irritating","left","true"
"html-keyboard-response","14","18251","0.0-2.0-0.6","1065","29","pre","10","afternoon","2026-05-05","2026-05-19","2026-05-14T16:40:52.638Z","Mozilla/5.0 (iPhone; CPU iPhone OS 18_7 like Mac OS X) AppleWebKit/605.1.15 (KHTML, like Gecko) Mobile/15E148","396","714","240","","null","<div style=""font-size:60px;"">+</div>","null","fixation","","","","","","","","","","","",""
"html-button-response","15","19143","0.0-2.0-1.6","1065","29","pre","10","afternoon","2026-05-05","2026-05-19","2026-05-14T16:40:52.638Z","Mozilla/5.0 (iPhone; CPU iPhone OS 18_7 like Mac OS X) AppleWebKit/605.1.15 (KHTML, like Gecko) Mobile/15E148","396","714","240","","886","<div class=""prompt"" style=""font-size:24px; margin-bottom:20px;"">Which word describes you more?</div>","0","pairing","7","companion","loser","PosNeg","83","6","positive","negative","77","companion","left","true"
"html-keyboard-response","16","19946","0.0-2.0-0.7","1065","29","pre","10","afternoon","2026-05-05","2026-05-19","2026-05-14T16:40:52.638Z","Mozilla/5.0 (iPhone; CPU iPhone OS 18_7 like Mac OS X) AppleWebKit/605.1.15 (KHTML, like Gecko) Mobile/15E148","396","714","240","","null","<div style=""font-size:60px;"">+</div>","null","fixation","","","","","","","","","","","",""
"html-button-response","17","20898","0.0-2.0-1.7","1065","29","pre","10","afternoon","2026-05-05","2026-05-19","2026-05-14T16:40:52.638Z","Mozilla/5.0 (iPhone; CPU iPhone OS 18_7 like Mac OS X) AppleWebKit/605.1.15 (KHTML, like Gecko) Mobile/15E148","396","714","240","","950","<div class=""prompt"" style=""font-size:24px; margin-bottom:20px;"">Which word describes you more?</div>","1","pairing","8","disgusting","selfish","NegNeg","11","12","negative","negative","1","selfish","right","true"
"html-keyboard-response","18","21701","0.0-2.0-0.8","1065","29","pre","10","afternoon","2026-05-05","2026-05-19","2026-05-14T16:40:52.638Z","Mozilla/5.0 (iPhone; CPU iPhone OS 18_7 like Mac OS X) AppleWebKit/605.1.15 (KHTML, like Gecko) Mobile/15E148","396","714","240","","null","<div style=""font-size:60px;"">+</div>","null","fixation","","","","","","","","","","","",""
"html-button-response","19","22558","0.0-2.0-1.8","1065","29","pre","10","afternoon","2026-05-05","2026-05-19","2026-05-14T16:40:52.638Z","Mozilla/5.0 (iPhone; CPU iPhone OS 18_7 like Mac OS X) AppleWebKit/605.1.15 (KHTML, like Gecko) Mobile/15E148","396","714","240","","855","<div class=""prompt"" style=""font-size:24px; margin-bottom:20px;"">Which word describes you more?</div>","0","pairing","9","stingy","legendary","PosNeg","96","11","negative","positive","85","stingy","left","true"
"html-keyboard-response","20","23361","0.0-2.0-0.9","1065","29","pre","10","afternoon","2026-05-05","2026-05-19","2026-05-14T16:40:52.638Z","Mozilla/5.0 (iPhone; CPU iPhone OS 18_7 like Mac OS X) AppleWebKit/605.1.15 (KHTML, like Gecko) Mobile/15E148","396","714","240","","null","<div style=""font-size:60px;"">+</div>","null","fixation","","","","","","","","","","","",""
"html-button-response","21","24538","0.0-2.0-1.9","1065","29","pre","10","afternoon","2026-05-05","2026-05-19","2026-05-14T16:40:52.638Z","Mozilla/5.0 (iPhone; CPU iPhone OS 18_7 like Mac OS X) AppleWebKit/605.1.15 (KHTML, like Gecko) Mobile/15E148","396","714","240","","1175","<div class=""prompt"" style=""font-size:24px; margin-bottom:20px;"">Which word describes you more?</div>","1","pairing","10","flawless","satisfied","PosPos","0","56","positive","positive","56","satisfied","right","true"
"html-keyboard-response","22","25341","0.0-2.0-0.10","1065","29","pre","10","afternoon","2026-05-05","2026-05-19","2026-05-14T16:40:52.638Z","Mozilla/5.0 (iPhone; CPU iPhone OS 18_7 like Mac OS X) AppleWebKit/605.1.15 (KHTML, like Gecko) Mobile/15E148","396","714","240","","null","<div style=""font-size:60px;"">+</div>","null","fixation","","","","","","","","","","","",""
"html-button-response","23","26525","0.0-2.0-1.10","1065","29","pre","10","afternoon","2026-05-05","2026-05-19","2026-05-14T16:40:52.638Z","Mozilla/5.0 (iPhone; CPU iPhone OS 18_7 like Mac OS X) AppleWebKit/605.1.15 (KHTML, like Gecko) Mobile/15E148","396","714","240","","1182","<div class=""prompt"" style=""font-size:24px; margin-bottom:20px;"">Which word describes you more?</div>","0","pairing","11","smiley","shameful","PosNeg","100","50","positive","negative","50","smiley","left","true"
"html-keyboard-response","24","27329","0.0-2.0-0.11","1065","29","pre","10","afternoon","2026-05-05","2026-05-19","2026-05-14T16:40:52.638Z","Mozilla/5.0 (iPhone; CPU iPhone OS 18_7 like Mac OS X) AppleWebKit/605.1.15 (KHTML, like Gecko) Mobile/15E148","396","714","240","","null","<div style=""font-size:60px;"">+</div>","null","fixation","","","","","","","","","","","",""
"html-button-response","25","28141","0.0-2.0-1.11","1065","29","pre","10","afternoon","2026-05-05","2026-05-19","2026-05-14T16:40:52.638Z","Mozilla/5.0 (iPhone; CPU iPhone OS 18_7 like Mac OS X) AppleWebKit/605.1.15 (KHTML, like Gecko) Mobile/15E148","396","714","240","","810","<div class=""prompt"" style=""font-size:24px; margin-bottom:20px;"">Which word describes you more?</div>","0","pairing","12","spectacular","distressed","PosNeg","58","64","positive","negative","6","spectacular","left","true"
"html-keyboard-response","26","28943","0.0-2.0-0.12","1065","29","pre","10","afternoon","2026-05-05","2026-05-19","2026-05-14T16:40:52.638Z","Mozilla/5.0 (iPhone; CPU iPhone OS 18_7 like Mac OS X) AppleWebKit/605.1.15 (KHTML, like Gecko) Mobile/15E148","396","714","240","","null","<div style=""font-size:60px;"">+</div>","null","fixation","","","","","","","","","","","",""
"html-button-response","27","31824","0.0-2.0-1.12","1065","29","pre","10","afternoon","2026-05-05","2026-05-19","2026-05-14T16:40:52.638Z","Mozilla/5.0 (iPhone; CPU iPhone OS 18_7 like Mac OS X) AppleWebKit/605.1.15 (KHTML, like Gecko) Mobile/15E148","396","714","240","","2879","<div class=""prompt"" style=""font-size:24px; margin-bottom:20px;"">Which word describes you more?</div>","0","pairing","13","malicious","playful","PosNeg","15","87","negative","positive","72","malicious","left","true"
"html-keyboard-response","28","32626","0.0-2.0-0.13","1065","29","pre","10","afternoon","2026-05-05","2026-05-19","2026-05-14T16:40:52.638Z","Mozilla/5.0 (iPhone; CPU iPhone OS 18_7 like Mac OS X) AppleWebKit/605.1.15 (KHTML, like Gecko) Mobile/15E148","396","714","240","","null","<div style=""font-size:60px;"">+</div>","null","fixation","","","","","","","","","","","",""
"html-button-response","29","33678","0.0-2.0-1.13","1065","29","pre","10","afternoon","2026-05-05","2026-05-19","2026-05-14T16:40:52.638Z","Mozilla/5.0 (iPhone; CPU iPhone OS 18_7 like Mac OS X) AppleWebKit/605.1.15 (KHTML, like Gecko) Mobile/15E148","396","714","240","","1050","<div class=""prompt"" style=""font-size:24px; margin-bottom:20px;"">Which word describes you more?</div>","1","pairing","14","flawless","resourceful","PosPos","0","80","positive","positive","80","resourceful","right","true"
"html-keyboard-response","30","34480","0.0-2.0-0.14","1065","29","pre","10","afternoon","2026-05-05","2026-05-19","2026-05-14T16:40:52.638Z","Mozilla/5.0 (iPhone; CPU iPhone OS 18_7 like Mac OS X) AppleWebKit/605.1.15 (KHTML, like Gecko) Mobile/15E148","396","714","240","","null","<div style=""font-size:60px;"">+</div>","null","fixation","","","","","","","","","","","",""
"html-button-response","31","35743","0.0-2.0-1.14","1065","29","pre","10","afternoon","2026-05-05","2026-05-19","2026-05-14T16:40:52.638Z","Mozilla/5.0 (iPhone; CPU iPhone OS 18_7 like Mac OS X) AppleWebKit/605.1.15 (KHTML, like Gecko) Mobile/15E148","396","714","240","","1260","<div class=""prompt"" style=""font-size:24px; margin-bottom:20px;"">Which word describes you more?</div>","0","pairing","15","disloyal","irritating","NegNeg","0","35","negative","negative","35","disloyal","left","true"
"html-keyboard-response","32","36546","0.0-2.0-0.15","1065","29","pre","10","afternoon","2026-05-05","2026-05-19","2026-05-14T16:40:52.638Z","Mozilla/5.0 (iPhone; CPU iPhone OS 18_7 like Mac OS X) AppleWebKit/605.1.15 (KHTML, like Gecko) Mobile/15E148","396","714","240","","null","<div style=""font-size:60px;"">+</div>","null","fixation","","","","","","","","","","","",""
"html-button-response","33","37800","0.0-2.0-1.15","1065","29","pre","10","afternoon","2026-05-05","2026-05-19","2026-05-14T16:40:52.638Z","Mozilla/5.0 (iPhone; CPU iPhone OS 18_7 like Mac OS X) AppleWebKit/605.1.15 (KHTML, like Gecko) Mobile/15E148","396","714","240","","1252","<div class=""prompt"" style=""font-size:24px; margin-bottom:20px;"">Which word describes you more?</div>","1","pairing","16","uninvited","expert","PosNeg","58","57","negative","positive","1","expert","right","true"
"html-keyboard-response","34","38602","0.0-2.0-0.16","1065","29","pre","10","afternoon","2026-05-05","2026-05-19","2026-05-14T16:40:52.638Z","Mozilla/5.0 (iPhone; CPU iPhone OS 18_7 like Mac OS X) AppleWebKit/605.1.15 (KHTML, like Gecko) Mobile/15E148","396","714","240","","null","<div style=""font-size:60px;"">+</div>","null","fixation","","","","","","","","","","","",""
"html-button-response","35","40811","0.0-2.0-1.16","1065","29","pre","10","afternoon","2026-05-05","2026-05-19","2026-05-14T16:40:52.638Z","Mozilla/5.0 (iPhone; CPU iPhone OS 18_7 like Mac OS X) AppleWebKit/605.1.15 (KHTML, like Gecko) Mobile/15E148","396","714","240","","2207","<div class=""prompt"" style=""font-size:24px; margin-bottom:20px;"">Which word describes you more?</div>","0","pairing","17","insecure","fraud","NegNeg","75","0","negative","negative","75","insecure","left","true"
"html-keyboard-response","36","41614","0.0-2.0-0.17","1065","29","pre","10","afternoon","2026-05-05","2026-05-19","2026-05-14T16:40:52.638Z","Mozilla/5.0 (iPhone; CPU iPhone OS 18_7 like Mac OS X) AppleWebKit/605.1.15 (KHTML, like Gecko) Mobile/15E148","396","714","240","","null","<div style=""font-size:60px;"">+</div>","null","fixation","","","","","","","","","","","",""
"html-button-response","37","43364","0.0-2.0-1.17","1065","29","pre","10","afternoon","2026-05-05","2026-05-19","2026-05-14T16:40:52.638Z","Mozilla/5.0 (iPhone; CPU iPhone OS 18_7 like Mac OS X) AppleWebKit/605.1.15 (KHTML, like Gecko) Mobile/15E148","396","714","240","","1748","<div class=""prompt"" style=""font-size:24px; margin-bottom:20px;"">Which word describes you more?</div>","1","pairing","18","shameful","enthusiastic","PosNeg","50","84","negative","positive","34","enthusiastic","right","true"
"html-keyboard-response","38","44167","0.0-2.0-0.18","1065","29","pre","10","afternoon","2026-05-05","2026-05-19","2026-05-14T16:40:52.638Z","Mozilla/5.0 (iPhone; CPU iPhone OS 18_7 like Mac OS X) AppleWebKit/605.1.15 (KHTML, like Gecko) Mobile/15E148","396","714","240","","null","<div style=""font-size:60px;"">+</div>","null","fixation","","","","","","","","","","","",""
"html-button-response","39","46002","0.0-2.0-1.18","1065","29","pre","10","afternoon","2026-05-05","2026-05-19","2026-05-14T16:40:52.638Z","Mozilla/5.0 (iPhone; CPU iPhone OS 18_7 like Mac OS X) AppleWebKit/605.1.15 (KHTML, like Gecko) Mobile/15E148","396","714","240","","1833","<div class=""prompt"" style=""font-size:24px; margin-bottom:20px;"">Which word describes you more?</div>","0","pairing","19","virtuous","awkward","PosNeg","19","86","positive","negative","67","virtuous","left","true"
"html-keyboard-response","40","46805","0.0-2.0-0.19","1065","29","pre","10","afternoon","2026-05-05","2026-05-19","2026-05-14T16:40:52.638Z","Mozilla/5.0 (iPhone; CPU iPhone OS 18_7 like Mac OS X) AppleWebKit/605.1.15 (KHTML, like Gecko) Mobile/15E148","396","714","240","","null","<div style=""font-size:60px;"">+</div>","null","fixation","","","","","","","","","","","",""
"html-button-response","41","49878","0.0-2.0-1.19","1065","29","pre","10","afternoon","2026-05-05","2026-05-19","2026-05-14T16:40:52.638Z","Mozilla/5.0 (iPhone; CPU iPhone OS 18_7 like Mac OS X) AppleWebKit/605.1.15 (KHTML, like Gecko) Mobile/15E148","396","714","240","","3071","<div class=""prompt"" style=""font-size:24px; margin-bottom:20px;"">Which word describes you more?</div>","0","pairing","20","selfish","awkward","NegNeg","12","86","negative","negative","74","selfish","left","true"
"html-keyboard-response","42","50681","0.0-2.0-0.20","1065","29","pre","10","afternoon","2026-05-05","2026-05-19","2026-05-14T16:40:52.638Z","Mozilla/5.0 (iPhone; CPU iPhone OS 18_7 like Mac OS X) AppleWebKit/605.1.15 (KHTML, like Gecko) Mobile/15E148","396","714","240","","null","<div style=""font-size:60px;"">+</div>","null","fixation","","","","","","","","","","","",""
"html-button-response","43","52361","0.0-2.0-1.20","1065","29","pre","10","afternoon","2026-05-05","2026-05-19","2026-05-14T16:40:52.638Z","Mozilla/5.0 (iPhone; CPU iPhone OS 18_7 like Mac OS X) AppleWebKit/605.1.15 (KHTML, like Gecko) Mobile/15E148","396","714","240","","1678","<div class=""prompt"" style=""font-size:24px; margin-bottom:20px;"">Which word describes you more?</div>","0","pairing","21","legendary","burden","PosNeg","11","60","positive","negative","49","legendary","left","true"
"html-keyboard-response","44","53164","0.0-2.0-0.21","1065","29","pre","10","afternoon","2026-05-05","2026-05-19","2026-05-14T16:40:52.638Z","Mozilla/5.0 (iPhone; CPU iPhone OS 18_7 like Mac OS X) AppleWebKit/605.1.15 (KHTML, like Gecko) Mobile/15E148","396","714","240","","null","<div style=""font-size:60px;"">+</div>","null","fixation","","","","","","","","","","","",""
"html-button-response","45","54162","0.0-2.0-1.21","1065","29","pre","10","afternoon","2026-05-05","2026-05-19","2026-05-14T16:40:52.638Z","Mozilla/5.0 (iPhone; CPU iPhone OS 18_7 like Mac OS X) AppleWebKit/605.1.15 (KHTML, like Gecko) Mobile/15E148","396","714","240","","996","<div class=""prompt"" style=""font-size:24px; margin-bottom:20px;"">Which word describes you more?</div>","0","pairing","22","easygoing","capable","PosPos","95","60","positive","positive","35","easygoing","left","true"
"html-keyboard-response","46","54965","0.0-2.0-0.22","1065","29","pre","10","afternoon","2026-05-05","2026-05-19","2026-05-14T16:40:52.638Z","Mozilla/5.0 (iPhone; CPU iPhone OS 18_7 like Mac OS X) AppleWebKit/605.1.15 (KHTML, like Gecko) Mobile/15E148","396","714","240","","null","<div style=""font-size:60px;"">+</div>","null","fixation","","","","","","","","","","","",""
"html-button-response","47","55778","0.0-2.0-1.22","1065","29","pre","10","afternoon","2026-05-05","2026-05-19","2026-05-14T16:40:52.638Z","Mozilla/5.0 (iPhone; CPU iPhone OS 18_7 like Mac OS X) AppleWebKit/605.1.15 (KHTML, like Gecko) Mobile/15E148","396","714","240","","808","<div class=""prompt"" style=""font-size:24px; margin-bottom:20px;"">Which word describes you more?</div>","0","pairing","23","friend","idealistic","PosPos","100","81","positive","positive","19","friend","left","true"
"html-keyboard-response","48","56580","0.0-2.0-0.23","1065","29","pre","10","afternoon","2026-05-05","2026-05-19","2026-05-14T16:40:52.638Z","Mozilla/5.0 (iPhone; CPU iPhone OS 18_7 like Mac OS X) AppleWebKit/605.1.15 (KHTML, like Gecko) Mobile/15E148","396","714","240","","null","<div style=""font-size:60px;"">+</div>","null","fixation","","","","","","","","","","","",""
"html-button-response","49","57320","0.0-2.0-1.23","1065","29","pre","10","afternoon","2026-05-05","2026-05-19","2026-05-14T16:40:52.638Z","Mozilla/5.0 (iPhone; CPU iPhone OS 18_7 like Mac OS X) AppleWebKit/605.1.15 (KHTML, like Gecko) Mobile/15E148","396","714","240","","737","<div class=""prompt"" style=""font-size:24px; margin-bottom:20px;"">Which word describes you more?</div>","0","pairing","24","proficient","appealing","PosPos","82","83","positive","positive","1","proficient","left","true"
"instructions","50","58254","0.0-3.0","1065","29","pre","10","afternoon","2026-05-05","2026-05-19","2026-05-14T16:40:52.638Z","Mozilla/5.0 (iPhone; CPU iPhone OS 18_7 like Mac OS X) AppleWebKit/605.1.15 (KHTML, like Gecko) Mobile/15E148","396","714","240","[{""page_index"":0,""viewing_time"":932}]","932","","","","","","","","","","","","","","",""
