"trial_type","trial_index","time_elapsed","internal_node_id","PUNS_ID","session_number","session_phase","session_day","session_slot","ema_start_date","ema_post_start_date","experiment_start","browser","screen_width","screen_height","timezone_offset","view_history","rt","stimulus","response","which_experiment_phase","trial_number","left_word","right_word","valence","left_base_rating","right_base_rating","left_valence","right_valence","abs_diff","participant_response","chosen_side","valid_response"
"pavlovia","0","1386","0.0-0.0","1080","18","pre","6","evening","2026-05-20","2026-06-03","2026-05-26T01:36:32.807Z","Mozilla/5.0 (iPhone; CPU iPhone OS 18_5 like Mac OS X) AppleWebKit/605.1.15 (KHTML, like Gecko) Mobile/15E148","343","597","240","","","","","","","","","","","","","","","","",""
"instructions","1","5410","0.0-1.0","1080","18","pre","6","evening","2026-05-20","2026-06-03","2026-05-26T01:36:32.807Z","Mozilla/5.0 (iPhone; CPU iPhone OS 18_5 like Mac OS X) AppleWebKit/605.1.15 (KHTML, like Gecko) Mobile/15E148","343","597","240","[{""page_index"":0,""viewing_time"":620},{""page_index"":1,""viewing_time"":525},{""page_index"":2,""viewing_time"":2303},{""page_index"":3,""viewing_time"":566}]","4014","","","","","","","","","","","","","","",""
"html-keyboard-response","2","6216","0.0-2.0-0.0","1080","18","pre","6","evening","2026-05-20","2026-06-03","2026-05-26T01:36:32.807Z","Mozilla/5.0 (iPhone; CPU iPhone OS 18_5 like Mac OS X) AppleWebKit/605.1.15 (KHTML, like Gecko) Mobile/15E148","343","597","240","","null","<div style=""font-size:60px;"">+</div>","null","fixation","","","","","","","","","","","",""
"html-button-response","3","7763","0.0-2.0-1.0","1080","18","pre","6","evening","2026-05-20","2026-06-03","2026-05-26T01:36:32.807Z","Mozilla/5.0 (iPhone; CPU iPhone OS 18_5 like Mac OS X) AppleWebKit/605.1.15 (KHTML, like Gecko) Mobile/15E148","343","597","240","","1543","<div class=""prompt"" style=""font-size:24px; margin-bottom:20px;"">Which word describes you more?</div>","0","pairing","1","deceitful","lifeless","NegNeg","18","3","negative","negative","15","deceitful","left","true"
"html-keyboard-response","4","8566","0.0-2.0-0.1","1080","18","pre","6","evening","2026-05-20","2026-06-03","2026-05-26T01:36:32.807Z","Mozilla/5.0 (iPhone; CPU iPhone OS 18_5 like Mac OS X) AppleWebKit/605.1.15 (KHTML, like Gecko) Mobile/15E148","343","597","240","","null","<div style=""font-size:60px;"">+</div>","null","fixation","","","","","","","","","","","",""
"html-button-response","5","9496","0.0-2.0-1.1","1080","18","pre","6","evening","2026-05-20","2026-06-03","2026-05-26T01:36:32.807Z","Mozilla/5.0 (iPhone; CPU iPhone OS 18_5 like Mac OS X) AppleWebKit/605.1.15 (KHTML, like Gecko) Mobile/15E148","343","597","240","","926","<div class=""prompt"" style=""font-size:24px; margin-bottom:20px;"">Which word describes you more?</div>","1","pairing","2","alluring","anxious","PosNeg","22","90","positive","negative","68","anxious","right","true"
"html-keyboard-response","6","10299","0.0-2.0-0.2","1080","18","pre","6","evening","2026-05-20","2026-06-03","2026-05-26T01:36:32.807Z","Mozilla/5.0 (iPhone; CPU iPhone OS 18_5 like Mac OS X) AppleWebKit/605.1.15 (KHTML, like Gecko) Mobile/15E148","343","597","240","","null","<div style=""font-size:60px;"">+</div>","null","fixation","","","","","","","","","","","",""
"html-button-response","7","11014","0.0-2.0-1.2","1080","18","pre","6","evening","2026-05-20","2026-06-03","2026-05-26T01:36:32.807Z","Mozilla/5.0 (iPhone; CPU iPhone OS 18_5 like Mac OS X) AppleWebKit/605.1.15 (KHTML, like Gecko) Mobile/15E148","343","597","240","","712","<div class=""prompt"" style=""font-size:24px; margin-bottom:20px;"">Which word describes you more?</div>","0","pairing","3","anxious","unfaithful","NegNeg","90","0","negative","negative","90","anxious","left","true"
"html-keyboard-response","8","11817","0.0-2.0-0.3","1080","18","pre","6","evening","2026-05-20","2026-06-03","2026-05-26T01:36:32.807Z","Mozilla/5.0 (iPhone; CPU iPhone OS 18_5 like Mac OS X) AppleWebKit/605.1.15 (KHTML, like Gecko) Mobile/15E148","343","597","240","","null","<div style=""font-size:60px;"">+</div>","null","fixation","","","","","","","","","","","",""
"html-button-response","9","12865","0.0-2.0-1.3","1080","18","pre","6","evening","2026-05-20","2026-06-03","2026-05-26T01:36:32.807Z","Mozilla/5.0 (iPhone; CPU iPhone OS 18_5 like Mac OS X) AppleWebKit/605.1.15 (KHTML, like Gecko) Mobile/15E148","343","597","240","","1045","<div class=""prompt"" style=""font-size:24px; margin-bottom:20px;"">Which word describes you more?</div>","1","pairing","4","authentic","sensible","PosPos","85","66","positive","positive","19","sensible","right","true"
"html-keyboard-response","10","13667","0.0-2.0-0.4","1080","18","pre","6","evening","2026-05-20","2026-06-03","2026-05-26T01:36:32.807Z","Mozilla/5.0 (iPhone; CPU iPhone OS 18_5 like Mac OS X) AppleWebKit/605.1.15 (KHTML, like Gecko) Mobile/15E148","343","597","240","","null","<div style=""font-size:60px;"">+</div>","null","fixation","","","","","","","","","","","",""
"html-button-response","11","14849","0.0-2.0-1.4","1080","18","pre","6","evening","2026-05-20","2026-06-03","2026-05-26T01:36:32.807Z","Mozilla/5.0 (iPhone; CPU iPhone OS 18_5 like Mac OS X) AppleWebKit/605.1.15 (KHTML, like Gecko) Mobile/15E148","343","597","240","","1180","<div class=""prompt"" style=""font-size:24px; margin-bottom:20px;"">Which word describes you more?</div>","1","pairing","5","shameful","humorous","PosNeg","27","60","negative","positive","33","humorous","right","true"
"html-keyboard-response","12","15652","0.0-2.0-0.5","1080","18","pre","6","evening","2026-05-20","2026-06-03","2026-05-26T01:36:32.807Z","Mozilla/5.0 (iPhone; CPU iPhone OS 18_5 like Mac OS X) AppleWebKit/605.1.15 (KHTML, like Gecko) Mobile/15E148","343","597","240","","null","<div style=""font-size:60px;"">+</div>","null","fixation","","","","","","","","","","","",""
"html-button-response","13","16568","0.0-2.0-1.5","1080","18","pre","6","evening","2026-05-20","2026-06-03","2026-05-26T01:36:32.807Z","Mozilla/5.0 (iPhone; CPU iPhone OS 18_5 like Mac OS X) AppleWebKit/605.1.15 (KHTML, like Gecko) Mobile/15E148","343","597","240","","913","<div class=""prompt"" style=""font-size:24px; margin-bottom:20px;"">Which word describes you more?</div>","1","pairing","6","wise","friend","PosPos","43","96","positive","positive","53","friend","right","true"
"html-keyboard-response","14","17371","0.0-2.0-0.6","1080","18","pre","6","evening","2026-05-20","2026-06-03","2026-05-26T01:36:32.807Z","Mozilla/5.0 (iPhone; CPU iPhone OS 18_5 like Mac OS X) AppleWebKit/605.1.15 (KHTML, like Gecko) Mobile/15E148","343","597","240","","null","<div style=""font-size:60px;"">+</div>","null","fixation","","","","","","","","","","","",""
"html-button-response","15","18369","0.0-2.0-1.6","1080","18","pre","6","evening","2026-05-20","2026-06-03","2026-05-26T01:36:32.807Z","Mozilla/5.0 (iPhone; CPU iPhone OS 18_5 like Mac OS X) AppleWebKit/605.1.15 (KHTML, like Gecko) Mobile/15E148","343","597","240","","995","<div class=""prompt"" style=""font-size:24px; margin-bottom:20px;"">Which word describes you more?</div>","1","pairing","7","cruel","insecure","NegNeg","0","84","negative","negative","84","insecure","right","true"
"html-keyboard-response","16","19173","0.0-2.0-0.7","1080","18","pre","6","evening","2026-05-20","2026-06-03","2026-05-26T01:36:32.807Z","Mozilla/5.0 (iPhone; CPU iPhone OS 18_5 like Mac OS X) AppleWebKit/605.1.15 (KHTML, like Gecko) Mobile/15E148","343","597","240","","null","<div style=""font-size:60px;"">+</div>","null","fixation","","","","","","","","","","","",""
"html-button-response","17","20120","0.0-2.0-1.7","1080","18","pre","6","evening","2026-05-20","2026-06-03","2026-05-26T01:36:32.807Z","Mozilla/5.0 (iPhone; CPU iPhone OS 18_5 like Mac OS X) AppleWebKit/605.1.15 (KHTML, like Gecko) Mobile/15E148","343","597","240","","944","<div class=""prompt"" style=""font-size:24px; margin-bottom:20px;"">Which word describes you more?</div>","0","pairing","8","goodwilled","legendary","PosPos","100","14","positive","positive","86","goodwilled","left","true"
"html-keyboard-response","18","20922","0.0-2.0-0.8","1080","18","pre","6","evening","2026-05-20","2026-06-03","2026-05-26T01:36:32.807Z","Mozilla/5.0 (iPhone; CPU iPhone OS 18_5 like Mac OS X) AppleWebKit/605.1.15 (KHTML, like Gecko) Mobile/15E148","343","597","240","","null","<div style=""font-size:60px;"">+</div>","null","fixation","","","","","","","","","","","",""
"html-button-response","19","22121","0.0-2.0-1.8","1080","18","pre","6","evening","2026-05-20","2026-06-03","2026-05-26T01:36:32.807Z","Mozilla/5.0 (iPhone; CPU iPhone OS 18_5 like Mac OS X) AppleWebKit/605.1.15 (KHTML, like Gecko) Mobile/15E148","343","597","240","","1197","<div class=""prompt"" style=""font-size:24px; margin-bottom:20px;"">Which word describes you more?</div>","0","pairing","9","hopeful","hesitant","PosNeg","94","52","positive","negative","42","hopeful","left","true"
"html-keyboard-response","20","22924","0.0-2.0-0.9","1080","18","pre","6","evening","2026-05-20","2026-06-03","2026-05-26T01:36:32.807Z","Mozilla/5.0 (iPhone; CPU iPhone OS 18_5 like Mac OS X) AppleWebKit/605.1.15 (KHTML, like Gecko) Mobile/15E148","343","597","240","","null","<div style=""font-size:60px;"">+</div>","null","fixation","","","","","","","","","","","",""
"html-button-response","21","24022","0.0-2.0-1.9","1080","18","pre","6","evening","2026-05-20","2026-06-03","2026-05-26T01:36:32.807Z","Mozilla/5.0 (iPhone; CPU iPhone OS 18_5 like Mac OS X) AppleWebKit/605.1.15 (KHTML, like Gecko) Mobile/15E148","343","597","240","","1096","<div class=""prompt"" style=""font-size:24px; margin-bottom:20px;"">Which word describes you more?</div>","1","pairing","10","bully","stingy","NegNeg","0","35","negative","negative","35","stingy","right","true"
"html-keyboard-response","22","24824","0.0-2.0-0.10","1080","18","pre","6","evening","2026-05-20","2026-06-03","2026-05-26T01:36:32.807Z","Mozilla/5.0 (iPhone; CPU iPhone OS 18_5 like Mac OS X) AppleWebKit/605.1.15 (KHTML, like Gecko) Mobile/15E148","343","597","240","","null","<div style=""font-size:60px;"">+</div>","null","fixation","","","","","","","","","","","",""
"html-button-response","23","25890","0.0-2.0-1.10","1080","18","pre","6","evening","2026-05-20","2026-06-03","2026-05-26T01:36:32.807Z","Mozilla/5.0 (iPhone; CPU iPhone OS 18_5 like Mac OS X) AppleWebKit/605.1.15 (KHTML, like Gecko) Mobile/15E148","343","597","240","","1064","<div class=""prompt"" style=""font-size:24px; margin-bottom:20px;"">Which word describes you more?</div>","0","pairing","11","champion","disgusting","PosNeg","30","18","positive","negative","12","champion","left","true"
"html-keyboard-response","24","26693","0.0-2.0-0.11","1080","18","pre","6","evening","2026-05-20","2026-06-03","2026-05-26T01:36:32.807Z","Mozilla/5.0 (iPhone; CPU iPhone OS 18_5 like Mac OS X) AppleWebKit/605.1.15 (KHTML, like Gecko) Mobile/15E148","343","597","240","","null","<div style=""font-size:60px;"">+</div>","null","fixation","","","","","","","","","","","",""
"html-button-response","25","27689","0.0-2.0-1.11","1080","18","pre","6","evening","2026-05-20","2026-06-03","2026-05-26T01:36:32.807Z","Mozilla/5.0 (iPhone; CPU iPhone OS 18_5 like Mac OS X) AppleWebKit/605.1.15 (KHTML, like Gecko) Mobile/15E148","343","597","240","","994","<div class=""prompt"" style=""font-size:24px; margin-bottom:20px;"">Which word describes you more?</div>","1","pairing","12","admired","anxious","PosNeg","48","90","positive","negative","42","anxious","right","true"
"html-keyboard-response","26","28492","0.0-2.0-0.12","1080","18","pre","6","evening","2026-05-20","2026-06-03","2026-05-26T01:36:32.807Z","Mozilla/5.0 (iPhone; CPU iPhone OS 18_5 like Mac OS X) AppleWebKit/605.1.15 (KHTML, like Gecko) Mobile/15E148","343","597","240","","null","<div style=""font-size:60px;"">+</div>","null","fixation","","","","","","","","","","","",""
"html-button-response","27","30009","0.0-2.0-1.12","1080","18","pre","6","evening","2026-05-20","2026-06-03","2026-05-26T01:36:32.807Z","Mozilla/5.0 (iPhone; CPU iPhone OS 18_5 like Mac OS X) AppleWebKit/605.1.15 (KHTML, like Gecko) Mobile/15E148","343","597","240","","1515","<div class=""prompt"" style=""font-size:24px; margin-bottom:20px;"">Which word describes you more?</div>","1","pairing","13","esteemed","merciful","PosPos","36","48","positive","positive","12","merciful","right","true"
"html-keyboard-response","28","30813","0.0-2.0-0.13","1080","18","pre","6","evening","2026-05-20","2026-06-03","2026-05-26T01:36:32.807Z","Mozilla/5.0 (iPhone; CPU iPhone OS 18_5 like Mac OS X) AppleWebKit/605.1.15 (KHTML, like Gecko) Mobile/15E148","343","597","240","","null","<div style=""font-size:60px;"">+</div>","null","fixation","","","","","","","","","","","",""
"html-button-response","29","31627","0.0-2.0-1.13","1080","18","pre","6","evening","2026-05-20","2026-06-03","2026-05-26T01:36:32.807Z","Mozilla/5.0 (iPhone; CPU iPhone OS 18_5 like Mac OS X) AppleWebKit/605.1.15 (KHTML, like Gecko) Mobile/15E148","343","597","240","","811","<div class=""prompt"" style=""font-size:24px; margin-bottom:20px;"">Which word describes you more?</div>","0","pairing","14","easygoing","adorable","PosPos","91","54","positive","positive","37","easygoing","left","true"
"html-keyboard-response","30","32428","0.0-2.0-0.14","1080","18","pre","6","evening","2026-05-20","2026-06-03","2026-05-26T01:36:32.807Z","Mozilla/5.0 (iPhone; CPU iPhone OS 18_5 like Mac OS X) AppleWebKit/605.1.15 (KHTML, like Gecko) Mobile/15E148","343","597","240","","null","<div style=""font-size:60px;"">+</div>","null","fixation","","","","","","","","","","","",""
"html-button-response","31","33445","0.0-2.0-1.14","1080","18","pre","6","evening","2026-05-20","2026-06-03","2026-05-26T01:36:32.807Z","Mozilla/5.0 (iPhone; CPU iPhone OS 18_5 like Mac OS X) AppleWebKit/605.1.15 (KHTML, like Gecko) Mobile/15E148","343","597","240","","1009","<div class=""prompt"" style=""font-size:24px; margin-bottom:20px;"">Which word describes you more?</div>","0","pairing","15","unforgivable","smart","PosNeg","0","54","negative","positive","54","unforgivable","left","true"
"html-keyboard-response","32","34248","0.0-2.0-0.15","1080","18","pre","6","evening","2026-05-20","2026-06-03","2026-05-26T01:36:32.807Z","Mozilla/5.0 (iPhone; CPU iPhone OS 18_5 like Mac OS X) AppleWebKit/605.1.15 (KHTML, like Gecko) Mobile/15E148","343","597","240","","null","<div style=""font-size:60px;"">+</div>","null","fixation","","","","","","","","","","","",""
"html-button-response","33","35146","0.0-2.0-1.15","1080","18","pre","6","evening","2026-05-20","2026-06-03","2026-05-26T01:36:32.807Z","Mozilla/5.0 (iPhone; CPU iPhone OS 18_5 like Mac OS X) AppleWebKit/605.1.15 (KHTML, like Gecko) Mobile/15E148","343","597","240","","895","<div class=""prompt"" style=""font-size:24px; margin-bottom:20px;"">Which word describes you more?</div>","0","pairing","16","sloppy","degenerate","NegNeg","58","19","negative","negative","39","sloppy","left","true"
"html-keyboard-response","34","35948","0.0-2.0-0.16","1080","18","pre","6","evening","2026-05-20","2026-06-03","2026-05-26T01:36:32.807Z","Mozilla/5.0 (iPhone; CPU iPhone OS 18_5 like Mac OS X) AppleWebKit/605.1.15 (KHTML, like Gecko) Mobile/15E148","343","597","240","","null","<div style=""font-size:60px;"">+</div>","null","fixation","","","","","","","","","","","",""
"html-button-response","35","36846","0.0-2.0-1.16","1080","18","pre","6","evening","2026-05-20","2026-06-03","2026-05-26T01:36:32.807Z","Mozilla/5.0 (iPhone; CPU iPhone OS 18_5 like Mac OS X) AppleWebKit/605.1.15 (KHTML, like Gecko) Mobile/15E148","343","597","240","","895","<div class=""prompt"" style=""font-size:24px; margin-bottom:20px;"">Which word describes you more?</div>","0","pairing","17","hesitant","visionary","PosNeg","52","34","negative","positive","18","hesitant","left","true"
"html-keyboard-response","36","37648","0.0-2.0-0.17","1080","18","pre","6","evening","2026-05-20","2026-06-03","2026-05-26T01:36:32.807Z","Mozilla/5.0 (iPhone; CPU iPhone OS 18_5 like Mac OS X) AppleWebKit/605.1.15 (KHTML, like Gecko) Mobile/15E148","343","597","240","","null","<div style=""font-size:60px;"">+</div>","null","fixation","","","","","","","","","","","",""
"html-button-response","37","38530","0.0-2.0-1.17","1080","18","pre","6","evening","2026-05-20","2026-06-03","2026-05-26T01:36:32.807Z","Mozilla/5.0 (iPhone; CPU iPhone OS 18_5 like Mac OS X) AppleWebKit/605.1.15 (KHTML, like Gecko) Mobile/15E148","343","597","240","","880","<div class=""prompt"" style=""font-size:24px; margin-bottom:20px;"">Which word describes you more?</div>","1","pairing","18","virtuous","dull","PosNeg","24","27","positive","negative","3","dull","right","true"
"html-keyboard-response","38","39332","0.0-2.0-0.18","1080","18","pre","6","evening","2026-05-20","2026-06-03","2026-05-26T01:36:32.807Z","Mozilla/5.0 (iPhone; CPU iPhone OS 18_5 like Mac OS X) AppleWebKit/605.1.15 (KHTML, like Gecko) Mobile/15E148","343","597","240","","null","<div style=""font-size:60px;"">+</div>","null","fixation","","","","","","","","","","","",""
"html-button-response","39","40448","0.0-2.0-1.18","1080","18","pre","6","evening","2026-05-20","2026-06-03","2026-05-26T01:36:32.807Z","Mozilla/5.0 (iPhone; CPU iPhone OS 18_5 like Mac OS X) AppleWebKit/605.1.15 (KHTML, like Gecko) Mobile/15E148","343","597","240","","1113","<div class=""prompt"" style=""font-size:24px; margin-bottom:20px;"">Which word describes you more?</div>","0","pairing","19","authentic","disgusting","PosNeg","85","18","positive","negative","67","authentic","left","true"
"html-keyboard-response","40","41250","0.0-2.0-0.19","1080","18","pre","6","evening","2026-05-20","2026-06-03","2026-05-26T01:36:32.807Z","Mozilla/5.0 (iPhone; CPU iPhone OS 18_5 like Mac OS X) AppleWebKit/605.1.15 (KHTML, like Gecko) Mobile/15E148","343","597","240","","null","<div style=""font-size:60px;"">+</div>","null","fixation","","","","","","","","","","","",""
"html-button-response","41","42367","0.0-2.0-1.19","1080","18","pre","6","evening","2026-05-20","2026-06-03","2026-05-26T01:36:32.807Z","Mozilla/5.0 (iPhone; CPU iPhone OS 18_5 like Mac OS X) AppleWebKit/605.1.15 (KHTML, like Gecko) Mobile/15E148","343","597","240","","1115","<div class=""prompt"" style=""font-size:24px; margin-bottom:20px;"">Which word describes you more?</div>","0","pairing","20","garbage","phony","NegNeg","14","15","negative","negative","1","garbage","left","true"
"html-keyboard-response","42","43169","0.0-2.0-0.20","1080","18","pre","6","evening","2026-05-20","2026-06-03","2026-05-26T01:36:32.807Z","Mozilla/5.0 (iPhone; CPU iPhone OS 18_5 like Mac OS X) AppleWebKit/605.1.15 (KHTML, like Gecko) Mobile/15E148","343","597","240","","null","<div style=""font-size:60px;"">+</div>","null","fixation","","","","","","","","","","","",""
"html-button-response","43","43950","0.0-2.0-1.20","1080","18","pre","6","evening","2026-05-20","2026-06-03","2026-05-26T01:36:32.807Z","Mozilla/5.0 (iPhone; CPU iPhone OS 18_5 like Mac OS X) AppleWebKit/605.1.15 (KHTML, like Gecko) Mobile/15E148","343","597","240","","779","<div class=""prompt"" style=""font-size:24px; margin-bottom:20px;"">Which word describes you more?</div>","0","pairing","21","insecure","expert","PosNeg","84","12","negative","positive","72","insecure","left","true"
"html-keyboard-response","44","44752","0.0-2.0-0.21","1080","18","pre","6","evening","2026-05-20","2026-06-03","2026-05-26T01:36:32.807Z","Mozilla/5.0 (iPhone; CPU iPhone OS 18_5 like Mac OS X) AppleWebKit/605.1.15 (KHTML, like Gecko) Mobile/15E148","343","597","240","","null","<div style=""font-size:60px;"">+</div>","null","fixation","","","","","","","","","","","",""
"html-button-response","45","46068","0.0-2.0-1.21","1080","18","pre","6","evening","2026-05-20","2026-06-03","2026-05-26T01:36:32.807Z","Mozilla/5.0 (iPhone; CPU iPhone OS 18_5 like Mac OS X) AppleWebKit/605.1.15 (KHTML, like Gecko) Mobile/15E148","343","597","240","","1314","<div class=""prompt"" style=""font-size:24px; margin-bottom:20px;"">Which word describes you more?</div>","1","pairing","22","disloyal","smiley","PosNeg","0","84","negative","positive","84","smiley","right","true"
"html-keyboard-response","46","46870","0.0-2.0-0.22","1080","18","pre","6","evening","2026-05-20","2026-06-03","2026-05-26T01:36:32.807Z","Mozilla/5.0 (iPhone; CPU iPhone OS 18_5 like Mac OS X) AppleWebKit/605.1.15 (KHTML, like Gecko) Mobile/15E148","343","597","240","","null","<div style=""font-size:60px;"">+</div>","null","fixation","","","","","","","","","","","",""
"html-button-response","47","47619","0.0-2.0-1.22","1080","18","pre","6","evening","2026-05-20","2026-06-03","2026-05-26T01:36:32.807Z","Mozilla/5.0 (iPhone; CPU iPhone OS 18_5 like Mac OS X) AppleWebKit/605.1.15 (KHTML, like Gecko) Mobile/15E148","343","597","240","","747","<div class=""prompt"" style=""font-size:24px; margin-bottom:20px;"">Which word describes you more?</div>","0","pairing","23","slob","expert","PosNeg","48","12","negative","positive","36","slob","left","true"
"html-keyboard-response","48","48421","0.0-2.0-0.23","1080","18","pre","6","evening","2026-05-20","2026-06-03","2026-05-26T01:36:32.807Z","Mozilla/5.0 (iPhone; CPU iPhone OS 18_5 like Mac OS X) AppleWebKit/605.1.15 (KHTML, like Gecko) Mobile/15E148","343","597","240","","null","<div style=""font-size:60px;"">+</div>","null","fixation","","","","","","","","","","","",""
"html-button-response","49","50270","0.0-2.0-1.23","1080","18","pre","6","evening","2026-05-20","2026-06-03","2026-05-26T01:36:32.807Z","Mozilla/5.0 (iPhone; CPU iPhone OS 18_5 like Mac OS X) AppleWebKit/605.1.15 (KHTML, like Gecko) Mobile/15E148","343","597","240","","1847","<div class=""prompt"" style=""font-size:24px; margin-bottom:20px;"">Which word describes you more?</div>","1","pairing","24","virtuous","goodwilled","PosPos","24","100","positive","positive","76","goodwilled","right","true"
"instructions","50","50970","0.0-3.0","1080","18","pre","6","evening","2026-05-20","2026-06-03","2026-05-26T01:36:32.807Z","Mozilla/5.0 (iPhone; CPU iPhone OS 18_5 like Mac OS X) AppleWebKit/605.1.15 (KHTML, like Gecko) Mobile/15E148","343","597","240","[{""page_index"":0,""viewing_time"":698}]","698","","","","","","","","","","","","","","",""
