"trial_type","trial_index","time_elapsed","internal_node_id","PUNS_ID","session_number","session_phase","session_day","session_slot","ema_start_date","ema_post_start_date","experiment_start","browser","screen_width","screen_height","timezone_offset","view_history","rt","stimulus","response","which_experiment_phase","trial_number","left_word","right_word","valence","left_base_rating","right_base_rating","left_valence","right_valence","abs_diff","participant_response","chosen_side","valid_response"
"pavlovia","0","1304","0.0-0.0","1015","28","pre","10","morning","2026-03-03","2026-03-15","2026-03-13T04:13:59.131Z","Mozilla/5.0 (Linux; Android 14; Pixel 4a (5G) Build/UP1A.231105.001.B2; wv) AppleWebKit/537.36 (KHTML, like Gecko) Version/4.0 Chrome/145.0.7632.159 Mobile Safari/537.36","379","674","240","","","","","","","","","","","","","","","","",""
"instructions","1","5174","0.0-1.0","1015","28","pre","10","morning","2026-03-03","2026-03-15","2026-03-13T04:13:59.131Z","Mozilla/5.0 (Linux; Android 14; Pixel 4a (5G) Build/UP1A.231105.001.B2; wv) AppleWebKit/537.36 (KHTML, like Gecko) Version/4.0 Chrome/145.0.7632.159 Mobile Safari/537.36","379","674","240","[{""page_index"":0,""viewing_time"":1117},{""page_index"":1,""viewing_time"":986},{""page_index"":2,""viewing_time"":915},{""page_index"":3,""viewing_time"":847}]","3866","","","","","","","","","","","","","","",""
"html-keyboard-response","2","5979","0.0-2.0-0.0","1015","28","pre","10","morning","2026-03-03","2026-03-15","2026-03-13T04:13:59.131Z","Mozilla/5.0 (Linux; Android 14; Pixel 4a (5G) Build/UP1A.231105.001.B2; wv) AppleWebKit/537.36 (KHTML, like Gecko) Version/4.0 Chrome/145.0.7632.159 Mobile Safari/537.36","379","674","240","","null","<div style=""font-size:60px;"">+</div>","null","fixation","","","","","","","","","","","",""
"html-button-response","3","7622","0.0-2.0-1.0","1015","28","pre","10","morning","2026-03-03","2026-03-15","2026-03-13T04:13:59.131Z","Mozilla/5.0 (Linux; Android 14; Pixel 4a (5G) Build/UP1A.231105.001.B2; wv) AppleWebKit/537.36 (KHTML, like Gecko) Version/4.0 Chrome/145.0.7632.159 Mobile Safari/537.36","379","674","240","","1637","<div class=""prompt"" style=""font-size:24px; margin-bottom:20px;"">Which word describes you more?</div>","1","pairing","1","irritating","hesitant","NegNeg","49","50","negative","negative","1","hesitant","right","true"
"html-keyboard-response","4","8424","0.0-2.0-0.1","1015","28","pre","10","morning","2026-03-03","2026-03-15","2026-03-13T04:13:59.131Z","Mozilla/5.0 (Linux; Android 14; Pixel 4a (5G) Build/UP1A.231105.001.B2; wv) AppleWebKit/537.36 (KHTML, like Gecko) Version/4.0 Chrome/145.0.7632.159 Mobile Safari/537.36","379","674","240","","null","<div style=""font-size:60px;"">+</div>","null","fixation","","","","","","","","","","","",""
"html-button-response","5","10699","0.0-2.0-1.1","1015","28","pre","10","morning","2026-03-03","2026-03-15","2026-03-13T04:13:59.131Z","Mozilla/5.0 (Linux; Android 14; Pixel 4a (5G) Build/UP1A.231105.001.B2; wv) AppleWebKit/537.36 (KHTML, like Gecko) Version/4.0 Chrome/145.0.7632.159 Mobile Safari/537.36","379","674","240","","2271","<div class=""prompt"" style=""font-size:24px; margin-bottom:20px;"">Which word describes you more?</div>","0","pairing","2","pleased","sensible","PosPos","78","100","positive","positive","22","pleased","left","true"
"html-keyboard-response","6","11501","0.0-2.0-0.2","1015","28","pre","10","morning","2026-03-03","2026-03-15","2026-03-13T04:13:59.131Z","Mozilla/5.0 (Linux; Android 14; Pixel 4a (5G) Build/UP1A.231105.001.B2; wv) AppleWebKit/537.36 (KHTML, like Gecko) Version/4.0 Chrome/145.0.7632.159 Mobile Safari/537.36","379","674","240","","null","<div style=""font-size:60px;"">+</div>","null","fixation","","","","","","","","","","","",""
"html-button-response","7","13415","0.0-2.0-1.2","1015","28","pre","10","morning","2026-03-03","2026-03-15","2026-03-13T04:13:59.131Z","Mozilla/5.0 (Linux; Android 14; Pixel 4a (5G) Build/UP1A.231105.001.B2; wv) AppleWebKit/537.36 (KHTML, like Gecko) Version/4.0 Chrome/145.0.7632.159 Mobile Safari/537.36","379","674","240","","1910","<div class=""prompt"" style=""font-size:24px; margin-bottom:20px;"">Which word describes you more?</div>","0","pairing","3","decisive","easygoing","PosPos","100","49","positive","positive","51","decisive","left","true"
"html-keyboard-response","8","14217","0.0-2.0-0.3","1015","28","pre","10","morning","2026-03-03","2026-03-15","2026-03-13T04:13:59.131Z","Mozilla/5.0 (Linux; Android 14; Pixel 4a (5G) Build/UP1A.231105.001.B2; wv) AppleWebKit/537.36 (KHTML, like Gecko) Version/4.0 Chrome/145.0.7632.159 Mobile Safari/537.36","379","674","240","","null","<div style=""font-size:60px;"">+</div>","null","fixation","","","","","","","","","","","",""
"html-button-response","9","15444","0.0-2.0-1.3","1015","28","pre","10","morning","2026-03-03","2026-03-15","2026-03-13T04:13:59.131Z","Mozilla/5.0 (Linux; Android 14; Pixel 4a (5G) Build/UP1A.231105.001.B2; wv) AppleWebKit/537.36 (KHTML, like Gecko) Version/4.0 Chrome/145.0.7632.159 Mobile Safari/537.36","379","674","240","","1226","<div class=""prompt"" style=""font-size:24px; margin-bottom:20px;"">Which word describes you more?</div>","1","pairing","4","companion","flawless","PosPos","100","81","positive","positive","19","flawless","right","true"
"html-keyboard-response","10","16246","0.0-2.0-0.4","1015","28","pre","10","morning","2026-03-03","2026-03-15","2026-03-13T04:13:59.131Z","Mozilla/5.0 (Linux; Android 14; Pixel 4a (5G) Build/UP1A.231105.001.B2; wv) AppleWebKit/537.36 (KHTML, like Gecko) Version/4.0 Chrome/145.0.7632.159 Mobile Safari/537.36","379","674","240","","null","<div style=""font-size:60px;"">+</div>","null","fixation","","","","","","","","","","","",""
"html-button-response","11","18101","0.0-2.0-1.4","1015","28","pre","10","morning","2026-03-03","2026-03-15","2026-03-13T04:13:59.131Z","Mozilla/5.0 (Linux; Android 14; Pixel 4a (5G) Build/UP1A.231105.001.B2; wv) AppleWebKit/537.36 (KHTML, like Gecko) Version/4.0 Chrome/145.0.7632.159 Mobile Safari/537.36","379","674","240","","1850","<div class=""prompt"" style=""font-size:24px; margin-bottom:20px;"">Which word describes you more?</div>","1","pairing","5","unwanted","spectacular","PosNeg","81","74","negative","positive","7","spectacular","right","true"
"html-keyboard-response","12","18904","0.0-2.0-0.5","1015","28","pre","10","morning","2026-03-03","2026-03-15","2026-03-13T04:13:59.131Z","Mozilla/5.0 (Linux; Android 14; Pixel 4a (5G) Build/UP1A.231105.001.B2; wv) AppleWebKit/537.36 (KHTML, like Gecko) Version/4.0 Chrome/145.0.7632.159 Mobile Safari/537.36","379","674","240","","null","<div style=""font-size:60px;"">+</div>","null","fixation","","","","","","","","","","","",""
"html-button-response","13","20230","0.0-2.0-1.5","1015","28","pre","10","morning","2026-03-03","2026-03-15","2026-03-13T04:13:59.131Z","Mozilla/5.0 (Linux; Android 14; Pixel 4a (5G) Build/UP1A.231105.001.B2; wv) AppleWebKit/537.36 (KHTML, like Gecko) Version/4.0 Chrome/145.0.7632.159 Mobile Safari/537.36","379","674","240","","1323","<div class=""prompt"" style=""font-size:24px; margin-bottom:20px;"">Which word describes you more?</div>","0","pairing","6","asset","unfaithful","PosNeg","100","0","positive","negative","100","asset","left","true"
"html-keyboard-response","14","21033","0.0-2.0-0.6","1015","28","pre","10","morning","2026-03-03","2026-03-15","2026-03-13T04:13:59.131Z","Mozilla/5.0 (Linux; Android 14; Pixel 4a (5G) Build/UP1A.231105.001.B2; wv) AppleWebKit/537.36 (KHTML, like Gecko) Version/4.0 Chrome/145.0.7632.159 Mobile Safari/537.36","379","674","240","","null","<div style=""font-size:60px;"">+</div>","null","fixation","","","","","","","","","","","",""
"html-button-response","15","22335","0.0-2.0-1.6","1015","28","pre","10","morning","2026-03-03","2026-03-15","2026-03-13T04:13:59.131Z","Mozilla/5.0 (Linux; Android 14; Pixel 4a (5G) Build/UP1A.231105.001.B2; wv) AppleWebKit/537.36 (KHTML, like Gecko) Version/4.0 Chrome/145.0.7632.159 Mobile Safari/537.36","379","674","240","","1299","<div class=""prompt"" style=""font-size:24px; margin-bottom:20px;"">Which word describes you more?</div>","0","pairing","7","outcast","untrustworthy","NegNeg","91","0","negative","negative","91","outcast","left","true"
"html-keyboard-response","16","23138","0.0-2.0-0.7","1015","28","pre","10","morning","2026-03-03","2026-03-15","2026-03-13T04:13:59.131Z","Mozilla/5.0 (Linux; Android 14; Pixel 4a (5G) Build/UP1A.231105.001.B2; wv) AppleWebKit/537.36 (KHTML, like Gecko) Version/4.0 Chrome/145.0.7632.159 Mobile Safari/537.36","379","674","240","","null","<div style=""font-size:60px;"">+</div>","null","fixation","","","","","","","","","","","",""
"html-button-response","17","25517","0.0-2.0-1.7","1015","28","pre","10","morning","2026-03-03","2026-03-15","2026-03-13T04:13:59.131Z","Mozilla/5.0 (Linux; Android 14; Pixel 4a (5G) Build/UP1A.231105.001.B2; wv) AppleWebKit/537.36 (KHTML, like Gecko) Version/4.0 Chrome/145.0.7632.159 Mobile Safari/537.36","379","674","240","","2375","<div class=""prompt"" style=""font-size:24px; margin-bottom:20px;"">Which word describes you more?</div>","1","pairing","8","easygoing","outcast","PosNeg","49","91","positive","negative","42","outcast","right","true"
"html-keyboard-response","18","26319","0.0-2.0-0.8","1015","28","pre","10","morning","2026-03-03","2026-03-15","2026-03-13T04:13:59.131Z","Mozilla/5.0 (Linux; Android 14; Pixel 4a (5G) Build/UP1A.231105.001.B2; wv) AppleWebKit/537.36 (KHTML, like Gecko) Version/4.0 Chrome/145.0.7632.159 Mobile Safari/537.36","379","674","240","","null","<div style=""font-size:60px;"">+</div>","null","fixation","","","","","","","","","","","",""
"html-button-response","19","28190","0.0-2.0-1.8","1015","28","pre","10","morning","2026-03-03","2026-03-15","2026-03-13T04:13:59.131Z","Mozilla/5.0 (Linux; Android 14; Pixel 4a (5G) Build/UP1A.231105.001.B2; wv) AppleWebKit/537.36 (KHTML, like Gecko) Version/4.0 Chrome/145.0.7632.159 Mobile Safari/537.36","379","674","240","","1868","<div class=""prompt"" style=""font-size:24px; margin-bottom:20px;"">Which word describes you more?</div>","1","pairing","9","uninvited","carefree","PosNeg","50","0","negative","positive","50","carefree","right","true"
"html-keyboard-response","20","28992","0.0-2.0-0.9","1015","28","pre","10","morning","2026-03-03","2026-03-15","2026-03-13T04:13:59.131Z","Mozilla/5.0 (Linux; Android 14; Pixel 4a (5G) Build/UP1A.231105.001.B2; wv) AppleWebKit/537.36 (KHTML, like Gecko) Version/4.0 Chrome/145.0.7632.159 Mobile Safari/537.36","379","674","240","","null","<div style=""font-size:60px;"">+</div>","null","fixation","","","","","","","","","","","",""
"html-button-response","21","31467","0.0-2.0-1.9","1015","28","pre","10","morning","2026-03-03","2026-03-15","2026-03-13T04:13:59.131Z","Mozilla/5.0 (Linux; Android 14; Pixel 4a (5G) Build/UP1A.231105.001.B2; wv) AppleWebKit/537.36 (KHTML, like Gecko) Version/4.0 Chrome/145.0.7632.159 Mobile Safari/537.36","379","674","240","","2472","<div class=""prompt"" style=""font-size:24px; margin-bottom:20px;"">Which word describes you more?</div>","1","pairing","10","alluring","attractive","PosPos","23","100","positive","positive","77","attractive","right","true"
"html-keyboard-response","22","32271","0.0-2.0-0.10","1015","28","pre","10","morning","2026-03-03","2026-03-15","2026-03-13T04:13:59.131Z","Mozilla/5.0 (Linux; Android 14; Pixel 4a (5G) Build/UP1A.231105.001.B2; wv) AppleWebKit/537.36 (KHTML, like Gecko) Version/4.0 Chrome/145.0.7632.159 Mobile Safari/537.36","379","674","240","","null","<div style=""font-size:60px;"">+</div>","null","fixation","","","","","","","","","","","",""
"html-button-response","23","34999","0.0-2.0-1.10","1015","28","pre","10","morning","2026-03-03","2026-03-15","2026-03-13T04:13:59.131Z","Mozilla/5.0 (Linux; Android 14; Pixel 4a (5G) Build/UP1A.231105.001.B2; wv) AppleWebKit/537.36 (KHTML, like Gecko) Version/4.0 Chrome/145.0.7632.159 Mobile Safari/537.36","379","674","240","","2725","<div class=""prompt"" style=""font-size:24px; margin-bottom:20px;"">Which word describes you more?</div>","1","pairing","11","slob","boring","NegNeg","0","100","negative","negative","100","boring","right","true"
"html-keyboard-response","24","35801","0.0-2.0-0.11","1015","28","pre","10","morning","2026-03-03","2026-03-15","2026-03-13T04:13:59.131Z","Mozilla/5.0 (Linux; Android 14; Pixel 4a (5G) Build/UP1A.231105.001.B2; wv) AppleWebKit/537.36 (KHTML, like Gecko) Version/4.0 Chrome/145.0.7632.159 Mobile Safari/537.36","379","674","240","","null","<div style=""font-size:60px;"">+</div>","null","fixation","","","","","","","","","","","",""
"html-button-response","25","38327","0.0-2.0-1.11","1015","28","pre","10","morning","2026-03-03","2026-03-15","2026-03-13T04:13:59.131Z","Mozilla/5.0 (Linux; Android 14; Pixel 4a (5G) Build/UP1A.231105.001.B2; wv) AppleWebKit/537.36 (KHTML, like Gecko) Version/4.0 Chrome/145.0.7632.159 Mobile Safari/537.36","379","674","240","","2521","<div class=""prompt"" style=""font-size:24px; margin-bottom:20px;"">Which word describes you more?</div>","0","pairing","12","problematic","cruel","NegNeg","48","0","negative","negative","48","problematic","left","true"
"html-keyboard-response","26","39128","0.0-2.0-0.12","1015","28","pre","10","morning","2026-03-03","2026-03-15","2026-03-13T04:13:59.131Z","Mozilla/5.0 (Linux; Android 14; Pixel 4a (5G) Build/UP1A.231105.001.B2; wv) AppleWebKit/537.36 (KHTML, like Gecko) Version/4.0 Chrome/145.0.7632.159 Mobile Safari/537.36","379","674","240","","null","<div style=""font-size:60px;"">+</div>","null","fixation","","","","","","","","","","","",""
"html-button-response","27","40277","0.0-2.0-1.12","1015","28","pre","10","morning","2026-03-03","2026-03-15","2026-03-13T04:13:59.131Z","Mozilla/5.0 (Linux; Android 14; Pixel 4a (5G) Build/UP1A.231105.001.B2; wv) AppleWebKit/537.36 (KHTML, like Gecko) Version/4.0 Chrome/145.0.7632.159 Mobile Safari/537.36","379","674","240","","1145","<div class=""prompt"" style=""font-size:24px; margin-bottom:20px;"">Which word describes you more?</div>","0","pairing","13","achiever","unwanted","PosNeg","100","81","positive","negative","19","achiever","left","true"
"html-keyboard-response","28","41080","0.0-2.0-0.13","1015","28","pre","10","morning","2026-03-03","2026-03-15","2026-03-13T04:13:59.131Z","Mozilla/5.0 (Linux; Android 14; Pixel 4a (5G) Build/UP1A.231105.001.B2; wv) AppleWebKit/537.36 (KHTML, like Gecko) Version/4.0 Chrome/145.0.7632.159 Mobile Safari/537.36","379","674","240","","null","<div style=""font-size:60px;"">+</div>","null","fixation","","","","","","","","","","","",""
"html-button-response","29","43226","0.0-2.0-1.13","1015","28","pre","10","morning","2026-03-03","2026-03-15","2026-03-13T04:13:59.131Z","Mozilla/5.0 (Linux; Android 14; Pixel 4a (5G) Build/UP1A.231105.001.B2; wv) AppleWebKit/537.36 (KHTML, like Gecko) Version/4.0 Chrome/145.0.7632.159 Mobile Safari/537.36","379","674","240","","2144","<div class=""prompt"" style=""font-size:24px; margin-bottom:20px;"">Which word describes you more?</div>","1","pairing","14","valued","easygoing","PosPos","0","49","positive","positive","49","easygoing","right","true"
"html-keyboard-response","30","44030","0.0-2.0-0.14","1015","28","pre","10","morning","2026-03-03","2026-03-15","2026-03-13T04:13:59.131Z","Mozilla/5.0 (Linux; Android 14; Pixel 4a (5G) Build/UP1A.231105.001.B2; wv) AppleWebKit/537.36 (KHTML, like Gecko) Version/4.0 Chrome/145.0.7632.159 Mobile Safari/537.36","379","674","240","","null","<div style=""font-size:60px;"">+</div>","null","fixation","","","","","","","","","","","",""
"html-button-response","31","45729","0.0-2.0-1.14","1015","28","pre","10","morning","2026-03-03","2026-03-15","2026-03-13T04:13:59.131Z","Mozilla/5.0 (Linux; Android 14; Pixel 4a (5G) Build/UP1A.231105.001.B2; wv) AppleWebKit/537.36 (KHTML, like Gecko) Version/4.0 Chrome/145.0.7632.159 Mobile Safari/537.36","379","674","240","","1696","<div class=""prompt"" style=""font-size:24px; margin-bottom:20px;"">Which word describes you more?</div>","1","pairing","15","fool","unlucky","NegNeg","0","64","negative","negative","64","unlucky","right","true"
"html-keyboard-response","32","46533","0.0-2.0-0.15","1015","28","pre","10","morning","2026-03-03","2026-03-15","2026-03-13T04:13:59.131Z","Mozilla/5.0 (Linux; Android 14; Pixel 4a (5G) Build/UP1A.231105.001.B2; wv) AppleWebKit/537.36 (KHTML, like Gecko) Version/4.0 Chrome/145.0.7632.159 Mobile Safari/537.36","379","674","240","","null","<div style=""font-size:60px;"">+</div>","null","fixation","","","","","","","","","","","",""
"html-button-response","33","48455","0.0-2.0-1.15","1015","28","pre","10","morning","2026-03-03","2026-03-15","2026-03-13T04:13:59.131Z","Mozilla/5.0 (Linux; Android 14; Pixel 4a (5G) Build/UP1A.231105.001.B2; wv) AppleWebKit/537.36 (KHTML, like Gecko) Version/4.0 Chrome/145.0.7632.159 Mobile Safari/537.36","379","674","240","","1920","<div class=""prompt"" style=""font-size:24px; margin-bottom:20px;"">Which word describes you more?</div>","0","pairing","16","blissful","negligent","PosNeg","44","0","positive","negative","44","blissful","left","true"
"html-keyboard-response","34","49257","0.0-2.0-0.16","1015","28","pre","10","morning","2026-03-03","2026-03-15","2026-03-13T04:13:59.131Z","Mozilla/5.0 (Linux; Android 14; Pixel 4a (5G) Build/UP1A.231105.001.B2; wv) AppleWebKit/537.36 (KHTML, like Gecko) Version/4.0 Chrome/145.0.7632.159 Mobile Safari/537.36","379","674","240","","null","<div style=""font-size:60px;"">+</div>","null","fixation","","","","","","","","","","","",""
"html-button-response","35","50841","0.0-2.0-1.16","1015","28","pre","10","morning","2026-03-03","2026-03-15","2026-03-13T04:13:59.131Z","Mozilla/5.0 (Linux; Android 14; Pixel 4a (5G) Build/UP1A.231105.001.B2; wv) AppleWebKit/537.36 (KHTML, like Gecko) Version/4.0 Chrome/145.0.7632.159 Mobile Safari/537.36","379","674","240","","1581","<div class=""prompt"" style=""font-size:24px; margin-bottom:20px;"">Which word describes you more?</div>","0","pairing","17","anxious","unfaithful","NegNeg","15","0","negative","negative","15","anxious","left","true"
"html-keyboard-response","36","51643","0.0-2.0-0.17","1015","28","pre","10","morning","2026-03-03","2026-03-15","2026-03-13T04:13:59.131Z","Mozilla/5.0 (Linux; Android 14; Pixel 4a (5G) Build/UP1A.231105.001.B2; wv) AppleWebKit/537.36 (KHTML, like Gecko) Version/4.0 Chrome/145.0.7632.159 Mobile Safari/537.36","379","674","240","","null","<div style=""font-size:60px;"">+</div>","null","fixation","","","","","","","","","","","",""
"html-button-response","37","54457","0.0-2.0-1.17","1015","28","pre","10","morning","2026-03-03","2026-03-15","2026-03-13T04:13:59.131Z","Mozilla/5.0 (Linux; Android 14; Pixel 4a (5G) Build/UP1A.231105.001.B2; wv) AppleWebKit/537.36 (KHTML, like Gecko) Version/4.0 Chrome/145.0.7632.159 Mobile Safari/537.36","379","674","240","","2810","<div class=""prompt"" style=""font-size:24px; margin-bottom:20px;"">Which word describes you more?</div>","1","pairing","18","phony","alluring","PosNeg","0","23","negative","positive","23","alluring","right","true"
"html-keyboard-response","38","55259","0.0-2.0-0.18","1015","28","pre","10","morning","2026-03-03","2026-03-15","2026-03-13T04:13:59.131Z","Mozilla/5.0 (Linux; Android 14; Pixel 4a (5G) Build/UP1A.231105.001.B2; wv) AppleWebKit/537.36 (KHTML, like Gecko) Version/4.0 Chrome/145.0.7632.159 Mobile Safari/537.36","379","674","240","","null","<div style=""font-size:60px;"">+</div>","null","fixation","","","","","","","","","","","",""
"html-button-response","39","57685","0.0-2.0-1.18","1015","28","pre","10","morning","2026-03-03","2026-03-15","2026-03-13T04:13:59.131Z","Mozilla/5.0 (Linux; Android 14; Pixel 4a (5G) Build/UP1A.231105.001.B2; wv) AppleWebKit/537.36 (KHTML, like Gecko) Version/4.0 Chrome/145.0.7632.159 Mobile Safari/537.36","379","674","240","","2423","<div class=""prompt"" style=""font-size:24px; margin-bottom:20px;"">Which word describes you more?</div>","0","pairing","19","adorable","boring","PosNeg","0","100","positive","negative","100","adorable","left","true"
"html-keyboard-response","40","58488","0.0-2.0-0.19","1015","28","pre","10","morning","2026-03-03","2026-03-15","2026-03-13T04:13:59.131Z","Mozilla/5.0 (Linux; Android 14; Pixel 4a (5G) Build/UP1A.231105.001.B2; wv) AppleWebKit/537.36 (KHTML, like Gecko) Version/4.0 Chrome/145.0.7632.159 Mobile Safari/537.36","379","674","240","","null","<div style=""font-size:60px;"">+</div>","null","fixation","","","","","","","","","","","",""
"html-button-response","41","60060","0.0-2.0-1.19","1015","28","pre","10","morning","2026-03-03","2026-03-15","2026-03-13T04:13:59.131Z","Mozilla/5.0 (Linux; Android 14; Pixel 4a (5G) Build/UP1A.231105.001.B2; wv) AppleWebKit/537.36 (KHTML, like Gecko) Version/4.0 Chrome/145.0.7632.159 Mobile Safari/537.36","379","674","240","","1570","<div class=""prompt"" style=""font-size:24px; margin-bottom:20px;"">Which word describes you more?</div>","0","pairing","20","wise","fun","PosPos","100","16","positive","positive","84","wise","left","true"
"html-keyboard-response","42","60862","0.0-2.0-0.20","1015","28","pre","10","morning","2026-03-03","2026-03-15","2026-03-13T04:13:59.131Z","Mozilla/5.0 (Linux; Android 14; Pixel 4a (5G) Build/UP1A.231105.001.B2; wv) AppleWebKit/537.36 (KHTML, like Gecko) Version/4.0 Chrome/145.0.7632.159 Mobile Safari/537.36","379","674","240","","null","<div style=""font-size:60px;"">+</div>","null","fixation","","","","","","","","","","","",""
"html-button-response","43","62844","0.0-2.0-1.20","1015","28","pre","10","morning","2026-03-03","2026-03-15","2026-03-13T04:13:59.131Z","Mozilla/5.0 (Linux; Android 14; Pixel 4a (5G) Build/UP1A.231105.001.B2; wv) AppleWebKit/537.36 (KHTML, like Gecko) Version/4.0 Chrome/145.0.7632.159 Mobile Safari/537.36","379","674","240","","1979","<div class=""prompt"" style=""font-size:24px; margin-bottom:20px;"">Which word describes you more?</div>","0","pairing","21","satisfied","uninvited","PosNeg","49","50","positive","negative","1","satisfied","left","true"
"html-keyboard-response","44","63647","0.0-2.0-0.21","1015","28","pre","10","morning","2026-03-03","2026-03-15","2026-03-13T04:13:59.131Z","Mozilla/5.0 (Linux; Android 14; Pixel 4a (5G) Build/UP1A.231105.001.B2; wv) AppleWebKit/537.36 (KHTML, like Gecko) Version/4.0 Chrome/145.0.7632.159 Mobile Safari/537.36","379","674","240","","null","<div style=""font-size:60px;"">+</div>","null","fixation","","","","","","","","","","","",""
"html-button-response","45","65332","0.0-2.0-1.21","1015","28","pre","10","morning","2026-03-03","2026-03-15","2026-03-13T04:13:59.131Z","Mozilla/5.0 (Linux; Android 14; Pixel 4a (5G) Build/UP1A.231105.001.B2; wv) AppleWebKit/537.36 (KHTML, like Gecko) Version/4.0 Chrome/145.0.7632.159 Mobile Safari/537.36","379","674","240","","1682","<div class=""prompt"" style=""font-size:24px; margin-bottom:20px;"">Which word describes you more?</div>","1","pairing","22","boring","alluring","PosNeg","100","23","negative","positive","77","alluring","right","true"
"html-keyboard-response","46","66135","0.0-2.0-0.22","1015","28","pre","10","morning","2026-03-03","2026-03-15","2026-03-13T04:13:59.131Z","Mozilla/5.0 (Linux; Android 14; Pixel 4a (5G) Build/UP1A.231105.001.B2; wv) AppleWebKit/537.36 (KHTML, like Gecko) Version/4.0 Chrome/145.0.7632.159 Mobile Safari/537.36","379","674","240","","null","<div style=""font-size:60px;"">+</div>","null","fixation","","","","","","","","","","","",""
"html-button-response","47","67714","0.0-2.0-1.22","1015","28","pre","10","morning","2026-03-03","2026-03-15","2026-03-13T04:13:59.131Z","Mozilla/5.0 (Linux; Android 14; Pixel 4a (5G) Build/UP1A.231105.001.B2; wv) AppleWebKit/537.36 (KHTML, like Gecko) Version/4.0 Chrome/145.0.7632.159 Mobile Safari/537.36","379","674","240","","1576","<div class=""prompt"" style=""font-size:24px; margin-bottom:20px;"">Which word describes you more?</div>","1","pairing","23","incompetent","witty","PosNeg","0","80","negative","positive","80","witty","right","true"
"html-keyboard-response","48","68517","0.0-2.0-0.23","1015","28","pre","10","morning","2026-03-03","2026-03-15","2026-03-13T04:13:59.131Z","Mozilla/5.0 (Linux; Android 14; Pixel 4a (5G) Build/UP1A.231105.001.B2; wv) AppleWebKit/537.36 (KHTML, like Gecko) Version/4.0 Chrome/145.0.7632.159 Mobile Safari/537.36","379","674","240","","null","<div style=""font-size:60px;"">+</div>","null","fixation","","","","","","","","","","","",""
"html-button-response","49","69959","0.0-2.0-1.23","1015","28","pre","10","morning","2026-03-03","2026-03-15","2026-03-13T04:13:59.131Z","Mozilla/5.0 (Linux; Android 14; Pixel 4a (5G) Build/UP1A.231105.001.B2; wv) AppleWebKit/537.36 (KHTML, like Gecko) Version/4.0 Chrome/145.0.7632.159 Mobile Safari/537.36","379","674","240","","1439","<div class=""prompt"" style=""font-size:24px; margin-bottom:20px;"">Which word describes you more?</div>","1","pairing","24","garbage","cooperative","PosNeg","0","50","negative","positive","50","cooperative","right","true"
"instructions","50","72718","0.0-3.0","1015","28","pre","10","morning","2026-03-03","2026-03-15","2026-03-13T04:13:59.131Z","Mozilla/5.0 (Linux; Android 14; Pixel 4a (5G) Build/UP1A.231105.001.B2; wv) AppleWebKit/537.36 (KHTML, like Gecko) Version/4.0 Chrome/145.0.7632.159 Mobile Safari/537.36","379","674","240","[{""page_index"":0,""viewing_time"":2755}]","2756","","","","","","","","","","","","","","",""
