"trial_type","trial_index","time_elapsed","internal_node_id","BASE_QUALTRICS_ID","PUNS_ID","baseline_date","baseline_time","session_day","session_slot","experiment_start","browser","screen_width","screen_height","timezone_offset","view_history","rt","stimulus","response","trial_number","left_word","right_word","valence","left_base_rating","right_base_rating","left_valence","right_valence","abs_diff","participant_response","chosen_side","valid_response","which_experiment_phase"
"pavlovia","0","1063","0.0-0.0","","9005","2025-11-06","17:02:26.520Z","day5","afternoon","2025-11-10T22:01:28.425Z","Mozilla/5.0 (Macintosh; Intel Mac OS X 10_15_7) AppleWebKit/537.36 (KHTML, like Gecko) Chrome/142.0.0.0 Safari/537.36","1440","812","300","","","","","","","","","","","","","","","","",""
"instructions","1","3961","0.0-1.0","","9005","2025-11-06","17:02:26.520Z","day5","afternoon","2025-11-10T22:01:28.425Z","Mozilla/5.0 (Macintosh; Intel Mac OS X 10_15_7) AppleWebKit/537.36 (KHTML, like Gecko) Chrome/142.0.0.0 Safari/537.36","1440","812","300","[{""page_index"":0,""viewing_time"":947},{""page_index"":1,""viewing_time"":533},{""page_index"":2,""viewing_time"":766},{""page_index"":3,""viewing_time"":649}]","2896","","","","","","","","","","","","","","",""
"html-button-response","2","12713","0.0-2.0-0.0","","9005","2025-11-06","17:02:26.520Z","day5","afternoon","2025-11-10T22:01:28.425Z","Mozilla/5.0 (Macintosh; Intel Mac OS X 10_15_7) AppleWebKit/537.36 (KHTML, like Gecko) Chrome/142.0.0.0 Safari/537.36","1440","812","300","","null","<div class=""prompt"">Which word describes you more?</div>","null","1","worthless","traitor","NegNeg","69","49","negative","negative","20","null","null","false","pairing"
"html-button-response","3","21709","0.0-2.0-0.1","","9005","2025-11-06","17:02:26.520Z","day5","afternoon","2025-11-10T22:01:28.425Z","Mozilla/5.0 (Macintosh; Intel Mac OS X 10_15_7) AppleWebKit/537.36 (KHTML, like Gecko) Chrome/142.0.0.0 Safari/537.36","1440","812","300","","null","<div class=""prompt"">Which word describes you more?</div>","null","2","bitter","reject","NegNeg","15","69","negative","negative","54","null","null","false","pairing"
"html-button-response","4","30709","0.0-2.0-0.2","","9005","2025-11-06","17:02:26.520Z","day5","afternoon","2025-11-10T22:01:28.425Z","Mozilla/5.0 (Macintosh; Intel Mac OS X 10_15_7) AppleWebKit/537.36 (KHTML, like Gecko) Chrome/142.0.0.0 Safari/537.36","1440","812","300","","null","<div class=""prompt"">Which word describes you more?</div>","null","3","charming","inadequate","PosNeg","69","15","positive","negative","54","null","null","false","pairing"
"html-button-response","5","39711","0.0-2.0-0.3","","9005","2025-11-06","17:02:26.520Z","day5","afternoon","2025-11-10T22:01:28.425Z","Mozilla/5.0 (Macintosh; Intel Mac OS X 10_15_7) AppleWebKit/537.36 (KHTML, like Gecko) Chrome/142.0.0.0 Safari/537.36","1440","812","300","","null","<div class=""prompt"">Which word describes you more?</div>","null","4","wise","expert","PosPos","69","49","positive","positive","20","null","null","false","pairing"
"html-button-response","6","48710","0.0-2.0-0.4","","9005","2025-11-06","17:02:26.520Z","day5","afternoon","2025-11-10T22:01:28.425Z","Mozilla/5.0 (Macintosh; Intel Mac OS X 10_15_7) AppleWebKit/537.36 (KHTML, like Gecko) Chrome/142.0.0.0 Safari/537.36","1440","812","300","","null","<div class=""prompt"">Which word describes you more?</div>","null","5","worthless","attractive","PosNeg","69","24","negative","positive","45","null","null","false","pairing"
"html-button-response","7","57709","0.0-2.0-0.5","","9005","2025-11-06","17:02:26.520Z","day5","afternoon","2025-11-10T22:01:28.425Z","Mozilla/5.0 (Macintosh; Intel Mac OS X 10_15_7) AppleWebKit/537.36 (KHTML, like Gecko) Chrome/142.0.0.0 Safari/537.36","1440","812","300","","null","<div class=""prompt"">Which word describes you more?</div>","null","6","awkward","incompetent","NegNeg","24","15","negative","negative","9","null","null","false","pairing"
"html-button-response","8","66710","0.0-2.0-0.6","","9005","2025-11-06","17:02:26.520Z","day5","afternoon","2025-11-10T22:01:28.425Z","Mozilla/5.0 (Macintosh; Intel Mac OS X 10_15_7) AppleWebKit/537.36 (KHTML, like Gecko) Chrome/142.0.0.0 Safari/537.36","1440","812","300","","null","<div class=""prompt"">Which word describes you more?</div>","null","7","phony","unwanted","NegNeg","49","49","negative","negative","0","null","null","false","pairing"
"html-button-response","9","90550","0.0-2.0-0.7","","9005","2025-11-06","17:02:26.520Z","day5","afternoon","2025-11-10T22:01:28.425Z","Mozilla/5.0 (Macintosh; Intel Mac OS X 10_15_7) AppleWebKit/537.36 (KHTML, like Gecko) Chrome/142.0.0.0 Safari/537.36","1440","812","300","","null","<div class=""prompt"">Which word describes you more?</div>","null","8","comfortable","vibrant","PosPos","15","49","positive","positive","34","null","null","false","pairing"
"html-button-response","10","91364","0.0-2.0-0.8","","9005","2025-11-06","17:02:26.520Z","day5","afternoon","2025-11-10T22:01:28.425Z","Mozilla/5.0 (Macintosh; Intel Mac OS X 10_15_7) AppleWebKit/537.36 (KHTML, like Gecko) Chrome/142.0.0.0 Safari/537.36","1440","812","300","","813","<div class=""prompt"">Which word describes you more?</div>","0","9","champion","smart","PosPos","22","69","positive","positive","47","champion","left","true","pairing"
"html-button-response","11","91813","0.0-2.0-0.9","","9005","2025-11-06","17:02:26.520Z","day5","afternoon","2025-11-10T22:01:28.425Z","Mozilla/5.0 (Macintosh; Intel Mac OS X 10_15_7) AppleWebKit/537.36 (KHTML, like Gecko) Chrome/142.0.0.0 Safari/537.36","1440","812","300","","447","<div class=""prompt"">Which word describes you more?</div>","1","10","scoundrel","spirited","PosNeg","69","37","negative","positive","32","spirited","right","true","pairing"
"html-button-response","12","92130","0.0-2.0-0.10","","9005","2025-11-06","17:02:26.520Z","day5","afternoon","2025-11-10T22:01:28.425Z","Mozilla/5.0 (Macintosh; Intel Mac OS X 10_15_7) AppleWebKit/537.36 (KHTML, like Gecko) Chrome/142.0.0.0 Safari/537.36","1440","812","300","","315","<div class=""prompt"">Which word describes you more?</div>","1","11","visionary","pest","PosNeg","69","49","positive","negative","20","pest","right","true","pairing"
"html-button-response","13","92662","0.0-2.0-0.11","","9005","2025-11-06","17:02:26.520Z","day5","afternoon","2025-11-10T22:01:28.425Z","Mozilla/5.0 (Macintosh; Intel Mac OS X 10_15_7) AppleWebKit/537.36 (KHTML, like Gecko) Chrome/142.0.0.0 Safari/537.36","1440","812","300","","531","<div class=""prompt"">Which word describes you more?</div>","1","12","proficient","tolerant","PosPos","49","24","positive","positive","25","tolerant","right","true","pairing"
"html-button-response","14","93113","0.0-2.0-0.12","","9005","2025-11-06","17:02:26.520Z","day5","afternoon","2025-11-10T22:01:28.425Z","Mozilla/5.0 (Macintosh; Intel Mac OS X 10_15_7) AppleWebKit/537.36 (KHTML, like Gecko) Chrome/142.0.0.0 Safari/537.36","1440","812","300","","449","<div class=""prompt"">Which word describes you more?</div>","0","13","empty","goodwilled","PosNeg","49","37","negative","positive","12","empty","left","true","pairing"
"html-button-response","15","93380","0.0-2.0-0.13","","9005","2025-11-06","17:02:26.520Z","day5","afternoon","2025-11-10T22:01:28.425Z","Mozilla/5.0 (Macintosh; Intel Mac OS X 10_15_7) AppleWebKit/537.36 (KHTML, like Gecko) Chrome/142.0.0.0 Safari/537.36","1440","812","300","","266","<div class=""prompt"">Which word describes you more?</div>","0","14","helpless","heartbroken","NegNeg","15","24","negative","negative","9","helpless","left","true","pairing"
"html-button-response","16","93863","0.0-2.0-0.14","","9005","2025-11-06","17:02:26.520Z","day5","afternoon","2025-11-10T22:01:28.425Z","Mozilla/5.0 (Macintosh; Intel Mac OS X 10_15_7) AppleWebKit/537.36 (KHTML, like Gecko) Chrome/142.0.0.0 Safari/537.36","1440","812","300","","482","<div class=""prompt"">Which word describes you more?</div>","1","15","sensible","hopeless","PosNeg","15","49","positive","negative","34","hopeless","right","true","pairing"
"html-button-response","17","94146","0.0-2.0-0.15","","9005","2025-11-06","17:02:26.520Z","day5","afternoon","2025-11-10T22:01:28.425Z","Mozilla/5.0 (Macintosh; Intel Mac OS X 10_15_7) AppleWebKit/537.36 (KHTML, like Gecko) Chrome/142.0.0.0 Safari/537.36","1440","812","300","","282","<div class=""prompt"">Which word describes you more?</div>","1","16","excited","greedy","PosNeg","15","69","positive","negative","54","greedy","right","true","pairing"
"html-button-response","18","94730","0.0-2.0-0.16","","9005","2025-11-06","17:02:26.520Z","day5","afternoon","2025-11-10T22:01:28.425Z","Mozilla/5.0 (Macintosh; Intel Mac OS X 10_15_7) AppleWebKit/537.36 (KHTML, like Gecko) Chrome/142.0.0.0 Safari/537.36","1440","812","300","","582","<div class=""prompt"">Which word describes you more?</div>","0","17","anxious","disgusting","NegNeg","49","15","negative","negative","34","anxious","left","true","pairing"
"html-button-response","19","94963","0.0-2.0-0.17","","9005","2025-11-06","17:02:26.520Z","day5","afternoon","2025-11-10T22:01:28.425Z","Mozilla/5.0 (Macintosh; Intel Mac OS X 10_15_7) AppleWebKit/537.36 (KHTML, like Gecko) Chrome/142.0.0.0 Safari/537.36","1440","812","300","","232","<div class=""prompt"">Which word describes you more?</div>","0","18","unbearable","wise","PosNeg","15","69","negative","positive","54","unbearable","left","true","pairing"
"html-button-response","20","95429","0.0-2.0-0.18","","9005","2025-11-06","17:02:26.520Z","day5","afternoon","2025-11-10T22:01:28.425Z","Mozilla/5.0 (Macintosh; Intel Mac OS X 10_15_7) AppleWebKit/537.36 (KHTML, like Gecko) Chrome/142.0.0.0 Safari/537.36","1440","812","300","","465","<div class=""prompt"">Which word describes you more?</div>","1","19","charming","tolerant","PosPos","69","24","positive","positive","45","tolerant","right","true","pairing"
"html-button-response","21","95647","0.0-2.0-0.19","","9005","2025-11-06","17:02:26.520Z","day5","afternoon","2025-11-10T22:01:28.425Z","Mozilla/5.0 (Macintosh; Intel Mac OS X 10_15_7) AppleWebKit/537.36 (KHTML, like Gecko) Chrome/142.0.0.0 Safari/537.36","1440","812","300","","215","<div class=""prompt"">Which word describes you more?</div>","1","20","disgusting","enthusiastic","PosNeg","15","69","negative","positive","54","enthusiastic","right","true","pairing"
"html-button-response","22","96146","0.0-2.0-0.20","","9005","2025-11-06","17:02:26.520Z","day5","afternoon","2025-11-10T22:01:28.425Z","Mozilla/5.0 (Macintosh; Intel Mac OS X 10_15_7) AppleWebKit/537.36 (KHTML, like Gecko) Chrome/142.0.0.0 Safari/537.36","1440","812","300","","498","<div class=""prompt"">Which word describes you more?</div>","0","21","achiever","respectful","PosPos","37","49","positive","positive","12","achiever","left","true","pairing"
"html-button-response","23","96396","0.0-2.0-0.21","","9005","2025-11-06","17:02:26.520Z","day5","afternoon","2025-11-10T22:01:28.425Z","Mozilla/5.0 (Macintosh; Intel Mac OS X 10_15_7) AppleWebKit/537.36 (KHTML, like Gecko) Chrome/142.0.0.0 Safari/537.36","1440","812","300","","249","<div class=""prompt"">Which word describes you more?</div>","0","22","optimistic","unwanted","PosNeg","69","49","positive","negative","20","optimistic","left","true","pairing"
"html-button-response","24","96896","0.0-2.0-0.22","","9005","2025-11-06","17:02:26.520Z","day5","afternoon","2025-11-10T22:01:28.425Z","Mozilla/5.0 (Macintosh; Intel Mac OS X 10_15_7) AppleWebKit/537.36 (KHTML, like Gecko) Chrome/142.0.0.0 Safari/537.36","1440","812","300","","498","<div class=""prompt"">Which word describes you more?</div>","1","23","disgusting","adventurous","PosNeg","15","24","negative","positive","9","adventurous","right","true","pairing"
"html-button-response","25","97363","0.0-2.0-0.23","","9005","2025-11-06","17:02:26.520Z","day5","afternoon","2025-11-10T22:01:28.425Z","Mozilla/5.0 (Macintosh; Intel Mac OS X 10_15_7) AppleWebKit/537.36 (KHTML, like Gecko) Chrome/142.0.0.0 Safari/537.36","1440","812","300","","465","<div class=""prompt"">Which word describes you more?</div>","0","24","eloquent","hopeless","PosNeg","24","49","positive","negative","25","eloquent","left","true","pairing"
"instructions","26","98146","0.0-3.0","","9005","2025-11-06","17:02:26.520Z","day5","afternoon","2025-11-10T22:01:28.425Z","Mozilla/5.0 (Macintosh; Intel Mac OS X 10_15_7) AppleWebKit/537.36 (KHTML, like Gecko) Chrome/142.0.0.0 Safari/537.36","1440","812","300","[{""page_index"":0,""viewing_time"":781}]","782","","","","","","","","","","","","","","",""
