"trial_type","trial_index","time_elapsed","internal_node_id","PUNS_ID","session_number","session_phase","session_day","session_slot","ema_start_date","ema_post_start_date","experiment_start","browser","screen_width","screen_height","timezone_offset","view_history","rt","stimulus","response","which_experiment_phase","trial_number","left_word","right_word","valence","left_base_rating","right_base_rating","left_valence","right_valence","abs_diff","participant_response","chosen_side","valid_response"
"pavlovia","0","1488","0.0-0.0","1068","54","post","8","evening","2026-06-09","2026-06-23","2026-07-01T01:36:29.549Z","Mozilla/5.0 (iPhone; CPU iPhone OS 18_7 like Mac OS X) AppleWebKit/605.1.15 (KHTML, like Gecko) Mobile/15E148","370","647","240","","","","","","","","","","","","","","","","",""
"instructions","1","4422","0.0-1.0","1068","54","post","8","evening","2026-06-09","2026-06-23","2026-07-01T01:36:29.549Z","Mozilla/5.0 (iPhone; CPU iPhone OS 18_7 like Mac OS X) AppleWebKit/605.1.15 (KHTML, like Gecko) Mobile/15E148","370","647","240","[{""page_index"":0,""viewing_time"":572},{""page_index"":1,""viewing_time"":584},{""page_index"":2,""viewing_time"":749},{""page_index"":3,""viewing_time"":1025}]","2931","","","","","","","","","","","","","","",""
"html-keyboard-response","2","5225","0.0-2.0-0.0","1068","54","post","8","evening","2026-06-09","2026-06-23","2026-07-01T01:36:29.549Z","Mozilla/5.0 (iPhone; CPU iPhone OS 18_7 like Mac OS X) AppleWebKit/605.1.15 (KHTML, like Gecko) Mobile/15E148","370","647","240","","null","<div style=""font-size:60px;"">+</div>","null","fixation","","","","","","","","","","","",""
"html-button-response","3","6315","0.0-2.0-1.0","1068","54","post","8","evening","2026-06-09","2026-06-23","2026-07-01T01:36:29.549Z","Mozilla/5.0 (iPhone; CPU iPhone OS 18_7 like Mac OS X) AppleWebKit/605.1.15 (KHTML, like Gecko) Mobile/15E148","370","647","240","","1084","<div class=""prompt"" style=""font-size:24px; margin-bottom:20px;"">Which word describes you more?</div>","1","pairing","1","insecure","enthusiastic","PosNeg","8","100","negative","positive","92","enthusiastic","right","true"
"html-keyboard-response","4","7117","0.0-2.0-0.1","1068","54","post","8","evening","2026-06-09","2026-06-23","2026-07-01T01:36:29.549Z","Mozilla/5.0 (iPhone; CPU iPhone OS 18_7 like Mac OS X) AppleWebKit/605.1.15 (KHTML, like Gecko) Mobile/15E148","370","647","240","","null","<div style=""font-size:60px;"">+</div>","null","fixation","","","","","","","","","","","",""
"html-button-response","5","7872","0.0-2.0-1.1","1068","54","post","8","evening","2026-06-09","2026-06-23","2026-07-01T01:36:29.549Z","Mozilla/5.0 (iPhone; CPU iPhone OS 18_7 like Mac OS X) AppleWebKit/605.1.15 (KHTML, like Gecko) Mobile/15E148","370","647","240","","754","<div class=""prompt"" style=""font-size:24px; margin-bottom:20px;"">Which word describes you more?</div>","0","pairing","2","talented","headache","PosNeg","83","4","positive","negative","79","talented","left","true"
"html-keyboard-response","6","8675","0.0-2.0-0.2","1068","54","post","8","evening","2026-06-09","2026-06-23","2026-07-01T01:36:29.549Z","Mozilla/5.0 (iPhone; CPU iPhone OS 18_7 like Mac OS X) AppleWebKit/605.1.15 (KHTML, like Gecko) Mobile/15E148","370","647","240","","null","<div style=""font-size:60px;"">+</div>","null","fixation","","","","","","","","","","","",""
"html-button-response","7","9347","0.0-2.0-1.2","1068","54","post","8","evening","2026-06-09","2026-06-23","2026-07-01T01:36:29.549Z","Mozilla/5.0 (iPhone; CPU iPhone OS 18_7 like Mac OS X) AppleWebKit/605.1.15 (KHTML, like Gecko) Mobile/15E148","370","647","240","","671","<div class=""prompt"" style=""font-size:24px; margin-bottom:20px;"">Which word describes you more?</div>","0","pairing","3","enthusiastic","fraud","PosNeg","100","1","positive","negative","99","enthusiastic","left","true"
"html-keyboard-response","8","10150","0.0-2.0-0.3","1068","54","post","8","evening","2026-06-09","2026-06-23","2026-07-01T01:36:29.549Z","Mozilla/5.0 (iPhone; CPU iPhone OS 18_7 like Mac OS X) AppleWebKit/605.1.15 (KHTML, like Gecko) Mobile/15E148","370","647","240","","null","<div style=""font-size:60px;"">+</div>","null","fixation","","","","","","","","","","","",""
"html-button-response","9","11173","0.0-2.0-1.3","1068","54","post","8","evening","2026-06-09","2026-06-23","2026-07-01T01:36:29.549Z","Mozilla/5.0 (iPhone; CPU iPhone OS 18_7 like Mac OS X) AppleWebKit/605.1.15 (KHTML, like Gecko) Mobile/15E148","370","647","240","","1022","<div class=""prompt"" style=""font-size:24px; margin-bottom:20px;"">Which word describes you more?</div>","1","pairing","4","boring","patient","PosNeg","13","75","negative","positive","62","patient","right","true"
"html-keyboard-response","10","11976","0.0-2.0-0.4","1068","54","post","8","evening","2026-06-09","2026-06-23","2026-07-01T01:36:29.549Z","Mozilla/5.0 (iPhone; CPU iPhone OS 18_7 like Mac OS X) AppleWebKit/605.1.15 (KHTML, like Gecko) Mobile/15E148","370","647","240","","null","<div style=""font-size:60px;"">+</div>","null","fixation","","","","","","","","","","","",""
"html-button-response","11","12948","0.0-2.0-1.4","1068","54","post","8","evening","2026-06-09","2026-06-23","2026-07-01T01:36:29.549Z","Mozilla/5.0 (iPhone; CPU iPhone OS 18_7 like Mac OS X) AppleWebKit/605.1.15 (KHTML, like Gecko) Mobile/15E148","370","647","240","","971","<div class=""prompt"" style=""font-size:24px; margin-bottom:20px;"">Which word describes you more?</div>","0","pairing","5","resourceful","failure","PosNeg","92","1","positive","negative","91","resourceful","left","true"
"html-keyboard-response","12","13751","0.0-2.0-0.5","1068","54","post","8","evening","2026-06-09","2026-06-23","2026-07-01T01:36:29.549Z","Mozilla/5.0 (iPhone; CPU iPhone OS 18_7 like Mac OS X) AppleWebKit/605.1.15 (KHTML, like Gecko) Mobile/15E148","370","647","240","","null","<div style=""font-size:60px;"">+</div>","null","fixation","","","","","","","","","","","",""
"html-button-response","13","14699","0.0-2.0-1.5","1068","54","post","8","evening","2026-06-09","2026-06-23","2026-07-01T01:36:29.549Z","Mozilla/5.0 (iPhone; CPU iPhone OS 18_7 like Mac OS X) AppleWebKit/605.1.15 (KHTML, like Gecko) Mobile/15E148","370","647","240","","946","<div class=""prompt"" style=""font-size:24px; margin-bottom:20px;"">Which word describes you more?</div>","0","pairing","6","knowledgeable","wise","PosPos","90","84","positive","positive","6","knowledgeable","left","true"
"html-keyboard-response","14","15501","0.0-2.0-0.6","1068","54","post","8","evening","2026-06-09","2026-06-23","2026-07-01T01:36:29.549Z","Mozilla/5.0 (iPhone; CPU iPhone OS 18_7 like Mac OS X) AppleWebKit/605.1.15 (KHTML, like Gecko) Mobile/15E148","370","647","240","","null","<div style=""font-size:60px;"">+</div>","null","fixation","","","","","","","","","","","",""
"html-button-response","15","16474","0.0-2.0-1.6","1068","54","post","8","evening","2026-06-09","2026-06-23","2026-07-01T01:36:29.549Z","Mozilla/5.0 (iPhone; CPU iPhone OS 18_7 like Mac OS X) AppleWebKit/605.1.15 (KHTML, like Gecko) Mobile/15E148","370","647","240","","971","<div class=""prompt"" style=""font-size:24px; margin-bottom:20px;"">Which word describes you more?</div>","0","pairing","7","learner","alone","PosNeg","100","0","positive","negative","100","learner","left","true"
"html-keyboard-response","16","17276","0.0-2.0-0.7","1068","54","post","8","evening","2026-06-09","2026-06-23","2026-07-01T01:36:29.549Z","Mozilla/5.0 (iPhone; CPU iPhone OS 18_7 like Mac OS X) AppleWebKit/605.1.15 (KHTML, like Gecko) Mobile/15E148","370","647","240","","null","<div style=""font-size:60px;"">+</div>","null","fixation","","","","","","","","","","","",""
"html-button-response","17","18416","0.0-2.0-1.7","1068","54","post","8","evening","2026-06-09","2026-06-23","2026-07-01T01:36:29.549Z","Mozilla/5.0 (iPhone; CPU iPhone OS 18_7 like Mac OS X) AppleWebKit/605.1.15 (KHTML, like Gecko) Mobile/15E148","370","647","240","","1138","<div class=""prompt"" style=""font-size:24px; margin-bottom:20px;"">Which word describes you more?</div>","0","pairing","8","sloppy","bully","NegNeg","2","1","negative","negative","1","sloppy","left","true"
"html-keyboard-response","18","19218","0.0-2.0-0.8","1068","54","post","8","evening","2026-06-09","2026-06-23","2026-07-01T01:36:29.549Z","Mozilla/5.0 (iPhone; CPU iPhone OS 18_7 like Mac OS X) AppleWebKit/605.1.15 (KHTML, like Gecko) Mobile/15E148","370","647","240","","null","<div style=""font-size:60px;"">+</div>","null","fixation","","","","","","","","","","","",""
"html-button-response","19","20365","0.0-2.0-1.8","1068","54","post","8","evening","2026-06-09","2026-06-23","2026-07-01T01:36:29.549Z","Mozilla/5.0 (iPhone; CPU iPhone OS 18_7 like Mac OS X) AppleWebKit/605.1.15 (KHTML, like Gecko) Mobile/15E148","370","647","240","","1146","<div class=""prompt"" style=""font-size:24px; margin-bottom:20px;"">Which word describes you more?</div>","1","pairing","9","merciful","champion","PosPos","85","100","positive","positive","15","champion","right","true"
"html-keyboard-response","20","21167","0.0-2.0-0.9","1068","54","post","8","evening","2026-06-09","2026-06-23","2026-07-01T01:36:29.549Z","Mozilla/5.0 (iPhone; CPU iPhone OS 18_7 like Mac OS X) AppleWebKit/605.1.15 (KHTML, like Gecko) Mobile/15E148","370","647","240","","null","<div style=""font-size:60px;"">+</div>","null","fixation","","","","","","","","","","","",""
"html-button-response","21","22000","0.0-2.0-1.9","1068","54","post","8","evening","2026-06-09","2026-06-23","2026-07-01T01:36:29.549Z","Mozilla/5.0 (iPhone; CPU iPhone OS 18_7 like Mac OS X) AppleWebKit/605.1.15 (KHTML, like Gecko) Mobile/15E148","370","647","240","","830","<div class=""prompt"" style=""font-size:24px; margin-bottom:20px;"">Which word describes you more?</div>","0","pairing","10","enthusiastic","immoral","PosNeg","100","2","positive","negative","98","enthusiastic","left","true"
"html-keyboard-response","22","22802","0.0-2.0-0.10","1068","54","post","8","evening","2026-06-09","2026-06-23","2026-07-01T01:36:29.549Z","Mozilla/5.0 (iPhone; CPU iPhone OS 18_7 like Mac OS X) AppleWebKit/605.1.15 (KHTML, like Gecko) Mobile/15E148","370","647","240","","null","<div style=""font-size:60px;"">+</div>","null","fixation","","","","","","","","","","","",""
"html-button-response","23","23750","0.0-2.0-1.10","1068","54","post","8","evening","2026-06-09","2026-06-23","2026-07-01T01:36:29.549Z","Mozilla/5.0 (iPhone; CPU iPhone OS 18_7 like Mac OS X) AppleWebKit/605.1.15 (KHTML, like Gecko) Mobile/15E148","370","647","240","","947","<div class=""prompt"" style=""font-size:24px; margin-bottom:20px;"">Which word describes you more?</div>","0","pairing","11","lovable","adorable","PosPos","93","98","positive","positive","5","lovable","left","true"
"html-keyboard-response","24","24552","0.0-2.0-0.11","1068","54","post","8","evening","2026-06-09","2026-06-23","2026-07-01T01:36:29.549Z","Mozilla/5.0 (iPhone; CPU iPhone OS 18_7 like Mac OS X) AppleWebKit/605.1.15 (KHTML, like Gecko) Mobile/15E148","370","647","240","","null","<div style=""font-size:60px;"">+</div>","null","fixation","","","","","","","","","","","",""
"html-button-response","25","25575","0.0-2.0-1.11","1068","54","post","8","evening","2026-06-09","2026-06-23","2026-07-01T01:36:29.549Z","Mozilla/5.0 (iPhone; CPU iPhone OS 18_7 like Mac OS X) AppleWebKit/605.1.15 (KHTML, like Gecko) Mobile/15E148","370","647","240","","1021","<div class=""prompt"" style=""font-size:24px; margin-bottom:20px;"">Which word describes you more?</div>","1","pairing","12","uninvited","sensible","PosNeg","0","99","negative","positive","99","sensible","right","true"
"html-keyboard-response","26","26377","0.0-2.0-0.12","1068","54","post","8","evening","2026-06-09","2026-06-23","2026-07-01T01:36:29.549Z","Mozilla/5.0 (iPhone; CPU iPhone OS 18_7 like Mac OS X) AppleWebKit/605.1.15 (KHTML, like Gecko) Mobile/15E148","370","647","240","","null","<div style=""font-size:60px;"">+</div>","null","fixation","","","","","","","","","","","",""
"html-button-response","27","27691","0.0-2.0-1.12","1068","54","post","8","evening","2026-06-09","2026-06-23","2026-07-01T01:36:29.549Z","Mozilla/5.0 (iPhone; CPU iPhone OS 18_7 like Mac OS X) AppleWebKit/605.1.15 (KHTML, like Gecko) Mobile/15E148","370","647","240","","1312","<div class=""prompt"" style=""font-size:24px; margin-bottom:20px;"">Which word describes you more?</div>","0","pairing","13","arrogant","pest","NegNeg","75","10","negative","negative","65","arrogant","left","true"
"html-keyboard-response","28","28493","0.0-2.0-0.13","1068","54","post","8","evening","2026-06-09","2026-06-23","2026-07-01T01:36:29.549Z","Mozilla/5.0 (iPhone; CPU iPhone OS 18_7 like Mac OS X) AppleWebKit/605.1.15 (KHTML, like Gecko) Mobile/15E148","370","647","240","","null","<div style=""font-size:60px;"">+</div>","null","fixation","","","","","","","","","","","",""
"html-button-response","29","29842","0.0-2.0-1.13","1068","54","post","8","evening","2026-06-09","2026-06-23","2026-07-01T01:36:29.549Z","Mozilla/5.0 (iPhone; CPU iPhone OS 18_7 like Mac OS X) AppleWebKit/605.1.15 (KHTML, like Gecko) Mobile/15E148","370","647","240","","1347","<div class=""prompt"" style=""font-size:24px; margin-bottom:20px;"">Which word describes you more?</div>","0","pairing","14","disgrace","bully","NegNeg","0","1","negative","negative","1","disgrace","left","true"
"html-keyboard-response","30","30647","0.0-2.0-0.14","1068","54","post","8","evening","2026-06-09","2026-06-23","2026-07-01T01:36:29.549Z","Mozilla/5.0 (iPhone; CPU iPhone OS 18_7 like Mac OS X) AppleWebKit/605.1.15 (KHTML, like Gecko) Mobile/15E148","370","647","240","","null","<div style=""font-size:60px;"">+</div>","null","fixation","","","","","","","","","","","",""
"html-button-response","31","31718","0.0-2.0-1.14","1068","54","post","8","evening","2026-06-09","2026-06-23","2026-07-01T01:36:29.549Z","Mozilla/5.0 (iPhone; CPU iPhone OS 18_7 like Mac OS X) AppleWebKit/605.1.15 (KHTML, like Gecko) Mobile/15E148","370","647","240","","1069","<div class=""prompt"" style=""font-size:24px; margin-bottom:20px;"">Which word describes you more?</div>","0","pairing","15","companion","tolerant","PosPos","95","20","positive","positive","75","companion","left","true"
"html-keyboard-response","32","32521","0.0-2.0-0.15","1068","54","post","8","evening","2026-06-09","2026-06-23","2026-07-01T01:36:29.549Z","Mozilla/5.0 (iPhone; CPU iPhone OS 18_7 like Mac OS X) AppleWebKit/605.1.15 (KHTML, like Gecko) Mobile/15E148","370","647","240","","null","<div style=""font-size:60px;"">+</div>","null","fixation","","","","","","","","","","","",""
"html-button-response","33","33785","0.0-2.0-1.15","1068","54","post","8","evening","2026-06-09","2026-06-23","2026-07-01T01:36:29.549Z","Mozilla/5.0 (iPhone; CPU iPhone OS 18_7 like Mac OS X) AppleWebKit/605.1.15 (KHTML, like Gecko) Mobile/15E148","370","647","240","","1262","<div class=""prompt"" style=""font-size:24px; margin-bottom:20px;"">Which word describes you more?</div>","0","pairing","16","arrogant","unfaithful","NegNeg","75","0","negative","negative","75","arrogant","left","true"
"html-keyboard-response","34","34587","0.0-2.0-0.16","1068","54","post","8","evening","2026-06-09","2026-06-23","2026-07-01T01:36:29.549Z","Mozilla/5.0 (iPhone; CPU iPhone OS 18_7 like Mac OS X) AppleWebKit/605.1.15 (KHTML, like Gecko) Mobile/15E148","370","647","240","","null","<div style=""font-size:60px;"">+</div>","null","fixation","","","","","","","","","","","",""
"html-button-response","35","35618","0.0-2.0-1.16","1068","54","post","8","evening","2026-06-09","2026-06-23","2026-07-01T01:36:29.549Z","Mozilla/5.0 (iPhone; CPU iPhone OS 18_7 like Mac OS X) AppleWebKit/605.1.15 (KHTML, like Gecko) Mobile/15E148","370","647","240","","1029","<div class=""prompt"" style=""font-size:24px; margin-bottom:20px;"">Which word describes you more?</div>","1","pairing","17","degenerate","pleased","PosNeg","20","100","negative","positive","80","pleased","right","true"
"html-keyboard-response","36","36420","0.0-2.0-0.17","1068","54","post","8","evening","2026-06-09","2026-06-23","2026-07-01T01:36:29.549Z","Mozilla/5.0 (iPhone; CPU iPhone OS 18_7 like Mac OS X) AppleWebKit/605.1.15 (KHTML, like Gecko) Mobile/15E148","370","647","240","","null","<div style=""font-size:60px;"">+</div>","null","fixation","","","","","","","","","","","",""
"html-button-response","37","37418","0.0-2.0-1.17","1068","54","post","8","evening","2026-06-09","2026-06-23","2026-07-01T01:36:29.549Z","Mozilla/5.0 (iPhone; CPU iPhone OS 18_7 like Mac OS X) AppleWebKit/605.1.15 (KHTML, like Gecko) Mobile/15E148","370","647","240","","996","<div class=""prompt"" style=""font-size:24px; margin-bottom:20px;"">Which word describes you more?</div>","0","pairing","18","spontaneous","tolerant","PosPos","85","20","positive","positive","65","spontaneous","left","true"
"html-keyboard-response","38","38220","0.0-2.0-0.18","1068","54","post","8","evening","2026-06-09","2026-06-23","2026-07-01T01:36:29.549Z","Mozilla/5.0 (iPhone; CPU iPhone OS 18_7 like Mac OS X) AppleWebKit/605.1.15 (KHTML, like Gecko) Mobile/15E148","370","647","240","","null","<div style=""font-size:60px;"">+</div>","null","fixation","","","","","","","","","","","",""
"html-button-response","39","39535","0.0-2.0-1.18","1068","54","post","8","evening","2026-06-09","2026-06-23","2026-07-01T01:36:29.549Z","Mozilla/5.0 (iPhone; CPU iPhone OS 18_7 like Mac OS X) AppleWebKit/605.1.15 (KHTML, like Gecko) Mobile/15E148","370","647","240","","1314","<div class=""prompt"" style=""font-size:24px; margin-bottom:20px;"">Which word describes you more?</div>","0","pairing","19","carefree","hesitant","PosNeg","73","10","positive","negative","63","carefree","left","true"
"html-keyboard-response","40","40337","0.0-2.0-0.19","1068","54","post","8","evening","2026-06-09","2026-06-23","2026-07-01T01:36:29.549Z","Mozilla/5.0 (iPhone; CPU iPhone OS 18_7 like Mac OS X) AppleWebKit/605.1.15 (KHTML, like Gecko) Mobile/15E148","370","647","240","","null","<div style=""font-size:60px;"">+</div>","null","fixation","","","","","","","","","","","",""
"html-button-response","41","42319","0.0-2.0-1.19","1068","54","post","8","evening","2026-06-09","2026-06-23","2026-07-01T01:36:29.549Z","Mozilla/5.0 (iPhone; CPU iPhone OS 18_7 like Mac OS X) AppleWebKit/605.1.15 (KHTML, like Gecko) Mobile/15E148","370","647","240","","1980","<div class=""prompt"" style=""font-size:24px; margin-bottom:20px;"">Which word describes you more?</div>","1","pairing","20","problematic","jealous","NegNeg","14","3","negative","negative","11","jealous","right","true"
"html-keyboard-response","42","43121","0.0-2.0-0.20","1068","54","post","8","evening","2026-06-09","2026-06-23","2026-07-01T01:36:29.549Z","Mozilla/5.0 (iPhone; CPU iPhone OS 18_7 like Mac OS X) AppleWebKit/605.1.15 (KHTML, like Gecko) Mobile/15E148","370","647","240","","null","<div style=""font-size:60px;"">+</div>","null","fixation","","","","","","","","","","","",""
"html-button-response","43","44052","0.0-2.0-1.20","1068","54","post","8","evening","2026-06-09","2026-06-23","2026-07-01T01:36:29.549Z","Mozilla/5.0 (iPhone; CPU iPhone OS 18_7 like Mac OS X) AppleWebKit/605.1.15 (KHTML, like Gecko) Mobile/15E148","370","647","240","","930","<div class=""prompt"" style=""font-size:24px; margin-bottom:20px;"">Which word describes you more?</div>","1","pairing","21","shameful","fun","PosNeg","0","100","negative","positive","100","fun","right","true"
"html-keyboard-response","44","44855","0.0-2.0-0.21","1068","54","post","8","evening","2026-06-09","2026-06-23","2026-07-01T01:36:29.549Z","Mozilla/5.0 (iPhone; CPU iPhone OS 18_7 like Mac OS X) AppleWebKit/605.1.15 (KHTML, like Gecko) Mobile/15E148","370","647","240","","null","<div style=""font-size:60px;"">+</div>","null","fixation","","","","","","","","","","","",""
"html-button-response","45","45886","0.0-2.0-1.21","1068","54","post","8","evening","2026-06-09","2026-06-23","2026-07-01T01:36:29.549Z","Mozilla/5.0 (iPhone; CPU iPhone OS 18_7 like Mac OS X) AppleWebKit/605.1.15 (KHTML, like Gecko) Mobile/15E148","370","647","240","","1029","<div class=""prompt"" style=""font-size:24px; margin-bottom:20px;"">Which word describes you more?</div>","1","pairing","22","irresponsible","arrogant","NegNeg","9","75","negative","negative","66","arrogant","right","true"
"html-keyboard-response","46","46688","0.0-2.0-0.22","1068","54","post","8","evening","2026-06-09","2026-06-23","2026-07-01T01:36:29.549Z","Mozilla/5.0 (iPhone; CPU iPhone OS 18_7 like Mac OS X) AppleWebKit/605.1.15 (KHTML, like Gecko) Mobile/15E148","370","647","240","","null","<div style=""font-size:60px;"">+</div>","null","fixation","","","","","","","","","","","",""
"html-button-response","47","48336","0.0-2.0-1.22","1068","54","post","8","evening","2026-06-09","2026-06-23","2026-07-01T01:36:29.549Z","Mozilla/5.0 (iPhone; CPU iPhone OS 18_7 like Mac OS X) AppleWebKit/605.1.15 (KHTML, like Gecko) Mobile/15E148","370","647","240","","1647","<div class=""prompt"" style=""font-size:24px; margin-bottom:20px;"">Which word describes you more?</div>","1","pairing","23","tolerant","sophisticated","PosPos","20","85","positive","positive","65","sophisticated","right","true"
"html-keyboard-response","48","49139","0.0-2.0-0.23","1068","54","post","8","evening","2026-06-09","2026-06-23","2026-07-01T01:36:29.549Z","Mozilla/5.0 (iPhone; CPU iPhone OS 18_7 like Mac OS X) AppleWebKit/605.1.15 (KHTML, like Gecko) Mobile/15E148","370","647","240","","null","<div style=""font-size:60px;"">+</div>","null","fixation","","","","","","","","","","","",""
"html-button-response","49","50011","0.0-2.0-1.23","1068","54","post","8","evening","2026-06-09","2026-06-23","2026-07-01T01:36:29.549Z","Mozilla/5.0 (iPhone; CPU iPhone OS 18_7 like Mac OS X) AppleWebKit/605.1.15 (KHTML, like Gecko) Mobile/15E148","370","647","240","","871","<div class=""prompt"" style=""font-size:24px; margin-bottom:20px;"">Which word describes you more?</div>","0","pairing","24","helper","unfaithful","PosNeg","98","0","positive","negative","98","helper","left","true"
"instructions","50","50787","0.0-3.0","1068","54","post","8","evening","2026-06-09","2026-06-23","2026-07-01T01:36:29.549Z","Mozilla/5.0 (iPhone; CPU iPhone OS 18_7 like Mac OS X) AppleWebKit/605.1.15 (KHTML, like Gecko) Mobile/15E148","370","647","240","[{""page_index"":0,""viewing_time"":774}]","775","","","","","","","","","","","","","","",""
