"trial_type","trial_index","time_elapsed","internal_node_id","PUNS_ID","session_number","session_phase","session_day","session_slot","ema_start_date","ema_post_start_date","experiment_start","browser","screen_width","screen_height","timezone_offset","view_history","rt","stimulus","response","which_experiment_phase","trial_number","left_word","right_word","valence","left_base_rating","right_base_rating","left_valence","right_valence","abs_diff","participant_response","chosen_side","valid_response"
"pavlovia","0","1551","0.0-0.0","1033","18","pre","6","evening","2026-03-25","2026-04-06","2026-03-31T03:25:40.344Z","Mozilla/5.0 (iPhone; CPU iPhone OS 18_7 like Mac OS X) AppleWebKit/605.1.15 (KHTML, like Gecko) Mobile/15E148","370","644","300","","","","","","","","","","","","","","","","",""
"instructions","1","4815","0.0-1.0","1033","18","pre","6","evening","2026-03-25","2026-04-06","2026-03-31T03:25:40.344Z","Mozilla/5.0 (iPhone; CPU iPhone OS 18_7 like Mac OS X) AppleWebKit/605.1.15 (KHTML, like Gecko) Mobile/15E148","370","644","300","[{""page_index"":0,""viewing_time"":679},{""page_index"":1,""viewing_time"":641},{""page_index"":2,""viewing_time"":1092},{""page_index"":3,""viewing_time"":851}]","3263","","","","","","","","","","","","","","",""
"html-keyboard-response","2","5619","0.0-2.0-0.0","1033","18","pre","6","evening","2026-03-25","2026-04-06","2026-03-31T03:25:40.344Z","Mozilla/5.0 (iPhone; CPU iPhone OS 18_7 like Mac OS X) AppleWebKit/605.1.15 (KHTML, like Gecko) Mobile/15E148","370","644","300","","null","<div style=""font-size:60px;"">+</div>","null","fixation","","","","","","","","","","","",""
"html-button-response","3","7608","0.0-2.0-1.0","1033","18","pre","6","evening","2026-03-25","2026-04-06","2026-03-31T03:25:40.344Z","Mozilla/5.0 (iPhone; CPU iPhone OS 18_7 like Mac OS X) AppleWebKit/605.1.15 (KHTML, like Gecko) Mobile/15E148","370","644","300","","1986","<div class=""prompt"" style=""font-size:24px; margin-bottom:20px;"">Which word describes you more?</div>","1","pairing","1","loser","slob","NegNeg","0","6","negative","negative","6","slob","right","true"
"html-keyboard-response","4","8410","0.0-2.0-0.1","1033","18","pre","6","evening","2026-03-25","2026-04-06","2026-03-31T03:25:40.344Z","Mozilla/5.0 (iPhone; CPU iPhone OS 18_7 like Mac OS X) AppleWebKit/605.1.15 (KHTML, like Gecko) Mobile/15E148","370","644","300","","null","<div style=""font-size:60px;"">+</div>","null","fixation","","","","","","","","","","","",""
"html-button-response","5","9806","0.0-2.0-1.1","1033","18","pre","6","evening","2026-03-25","2026-04-06","2026-03-31T03:25:40.344Z","Mozilla/5.0 (iPhone; CPU iPhone OS 18_7 like Mac OS X) AppleWebKit/605.1.15 (KHTML, like Gecko) Mobile/15E148","370","644","300","","1395","<div class=""prompt"" style=""font-size:24px; margin-bottom:20px;"">Which word describes you more?</div>","0","pairing","2","entertaining","alluring","PosPos","67","28","positive","positive","39","entertaining","left","true"
"html-keyboard-response","6","10608","0.0-2.0-0.2","1033","18","pre","6","evening","2026-03-25","2026-04-06","2026-03-31T03:25:40.344Z","Mozilla/5.0 (iPhone; CPU iPhone OS 18_7 like Mac OS X) AppleWebKit/605.1.15 (KHTML, like Gecko) Mobile/15E148","370","644","300","","null","<div style=""font-size:60px;"">+</div>","null","fixation","","","","","","","","","","","",""
"html-button-response","7","12108","0.0-2.0-1.2","1033","18","pre","6","evening","2026-03-25","2026-04-06","2026-03-31T03:25:40.344Z","Mozilla/5.0 (iPhone; CPU iPhone OS 18_7 like Mac OS X) AppleWebKit/605.1.15 (KHTML, like Gecko) Mobile/15E148","370","644","300","","1498","<div class=""prompt"" style=""font-size:24px; margin-bottom:20px;"">Which word describes you more?</div>","1","pairing","3","untrustworthy","sophisticated","PosNeg","51","34","negative","positive","17","sophisticated","right","true"
"html-keyboard-response","8","12910","0.0-2.0-0.3","1033","18","pre","6","evening","2026-03-25","2026-04-06","2026-03-31T03:25:40.344Z","Mozilla/5.0 (iPhone; CPU iPhone OS 18_7 like Mac OS X) AppleWebKit/605.1.15 (KHTML, like Gecko) Mobile/15E148","370","644","300","","null","<div style=""font-size:60px;"">+</div>","null","fixation","","","","","","","","","","","",""
"html-button-response","9","15867","0.0-2.0-1.3","1033","18","pre","6","evening","2026-03-25","2026-04-06","2026-03-31T03:25:40.344Z","Mozilla/5.0 (iPhone; CPU iPhone OS 18_7 like Mac OS X) AppleWebKit/605.1.15 (KHTML, like Gecko) Mobile/15E148","370","644","300","","2956","<div class=""prompt"" style=""font-size:24px; margin-bottom:20px;"">Which word describes you more?</div>","0","pairing","4","sadistic","untrustworthy","NegNeg","0","51","negative","negative","51","sadistic","left","true"
"html-keyboard-response","10","16669","0.0-2.0-0.4","1033","18","pre","6","evening","2026-03-25","2026-04-06","2026-03-31T03:25:40.344Z","Mozilla/5.0 (iPhone; CPU iPhone OS 18_7 like Mac OS X) AppleWebKit/605.1.15 (KHTML, like Gecko) Mobile/15E148","370","644","300","","null","<div style=""font-size:60px;"">+</div>","null","fixation","","","","","","","","","","","",""
"html-button-response","11","18692","0.0-2.0-1.4","1033","18","pre","6","evening","2026-03-25","2026-04-06","2026-03-31T03:25:40.344Z","Mozilla/5.0 (iPhone; CPU iPhone OS 18_7 like Mac OS X) AppleWebKit/605.1.15 (KHTML, like Gecko) Mobile/15E148","370","644","300","","2021","<div class=""prompt"" style=""font-size:24px; margin-bottom:20px;"">Which word describes you more?</div>","1","pairing","5","degenerate","witty","PosNeg","0","66","negative","positive","66","witty","right","true"
"html-keyboard-response","12","19494","0.0-2.0-0.5","1033","18","pre","6","evening","2026-03-25","2026-04-06","2026-03-31T03:25:40.344Z","Mozilla/5.0 (iPhone; CPU iPhone OS 18_7 like Mac OS X) AppleWebKit/605.1.15 (KHTML, like Gecko) Mobile/15E148","370","644","300","","null","<div style=""font-size:60px;"">+</div>","null","fixation","","","","","","","","","","","",""
"html-button-response","13","20992","0.0-2.0-1.5","1033","18","pre","6","evening","2026-03-25","2026-04-06","2026-03-31T03:25:40.344Z","Mozilla/5.0 (iPhone; CPU iPhone OS 18_7 like Mac OS X) AppleWebKit/605.1.15 (KHTML, like Gecko) Mobile/15E148","370","644","300","","1496","<div class=""prompt"" style=""font-size:24px; margin-bottom:20px;"">Which word describes you more?</div>","1","pairing","6","untrustworthy","helpless","NegNeg","51","0","negative","negative","51","helpless","right","true"
"html-keyboard-response","14","21794","0.0-2.0-0.6","1033","18","pre","6","evening","2026-03-25","2026-04-06","2026-03-31T03:25:40.344Z","Mozilla/5.0 (iPhone; CPU iPhone OS 18_7 like Mac OS X) AppleWebKit/605.1.15 (KHTML, like Gecko) Mobile/15E148","370","644","300","","null","<div style=""font-size:60px;"">+</div>","null","fixation","","","","","","","","","","","",""
"html-button-response","15","24474","0.0-2.0-1.6","1033","18","pre","6","evening","2026-03-25","2026-04-06","2026-03-31T03:25:40.344Z","Mozilla/5.0 (iPhone; CPU iPhone OS 18_7 like Mac OS X) AppleWebKit/605.1.15 (KHTML, like Gecko) Mobile/15E148","370","644","300","","2677","<div class=""prompt"" style=""font-size:24px; margin-bottom:20px;"">Which word describes you more?</div>","0","pairing","7","flawless","selfish","PosNeg","10","12","positive","negative","2","flawless","left","true"
"html-keyboard-response","16","25276","0.0-2.0-0.7","1033","18","pre","6","evening","2026-03-25","2026-04-06","2026-03-31T03:25:40.344Z","Mozilla/5.0 (iPhone; CPU iPhone OS 18_7 like Mac OS X) AppleWebKit/605.1.15 (KHTML, like Gecko) Mobile/15E148","370","644","300","","null","<div style=""font-size:60px;"">+</div>","null","fixation","","","","","","","","","","","",""
"html-button-response","17","26760","0.0-2.0-1.7","1033","18","pre","6","evening","2026-03-25","2026-04-06","2026-03-31T03:25:40.344Z","Mozilla/5.0 (iPhone; CPU iPhone OS 18_7 like Mac OS X) AppleWebKit/605.1.15 (KHTML, like Gecko) Mobile/15E148","370","644","300","","1482","<div class=""prompt"" style=""font-size:24px; margin-bottom:20px;"">Which word describes you more?</div>","1","pairing","8","pest","alone","NegNeg","7","0","negative","negative","7","alone","right","true"
"html-keyboard-response","18","27562","0.0-2.0-0.8","1033","18","pre","6","evening","2026-03-25","2026-04-06","2026-03-31T03:25:40.344Z","Mozilla/5.0 (iPhone; CPU iPhone OS 18_7 like Mac OS X) AppleWebKit/605.1.15 (KHTML, like Gecko) Mobile/15E148","370","644","300","","null","<div style=""font-size:60px;"">+</div>","null","fixation","","","","","","","","","","","",""
"html-button-response","19","29152","0.0-2.0-1.8","1033","18","pre","6","evening","2026-03-25","2026-04-06","2026-03-31T03:25:40.344Z","Mozilla/5.0 (iPhone; CPU iPhone OS 18_7 like Mac OS X) AppleWebKit/605.1.15 (KHTML, like Gecko) Mobile/15E148","370","644","300","","1589","<div class=""prompt"" style=""font-size:24px; margin-bottom:20px;"">Which word describes you more?</div>","1","pairing","9","legendary","credible","PosPos","50","87","positive","positive","37","credible","right","true"
"html-keyboard-response","20","29954","0.0-2.0-0.9","1033","18","pre","6","evening","2026-03-25","2026-04-06","2026-03-31T03:25:40.344Z","Mozilla/5.0 (iPhone; CPU iPhone OS 18_7 like Mac OS X) AppleWebKit/605.1.15 (KHTML, like Gecko) Mobile/15E148","370","644","300","","null","<div style=""font-size:60px;"">+</div>","null","fixation","","","","","","","","","","","",""
"html-button-response","21","31378","0.0-2.0-1.9","1033","18","pre","6","evening","2026-03-25","2026-04-06","2026-03-31T03:25:40.344Z","Mozilla/5.0 (iPhone; CPU iPhone OS 18_7 like Mac OS X) AppleWebKit/605.1.15 (KHTML, like Gecko) Mobile/15E148","370","644","300","","1421","<div class=""prompt"" style=""font-size:24px; margin-bottom:20px;"">Which word describes you more?</div>","1","pairing","10","flawless","seeker","PosPos","10","87","positive","positive","77","seeker","right","true"
"html-keyboard-response","22","32180","0.0-2.0-0.10","1033","18","pre","6","evening","2026-03-25","2026-04-06","2026-03-31T03:25:40.344Z","Mozilla/5.0 (iPhone; CPU iPhone OS 18_7 like Mac OS X) AppleWebKit/605.1.15 (KHTML, like Gecko) Mobile/15E148","370","644","300","","null","<div style=""font-size:60px;"">+</div>","null","fixation","","","","","","","","","","","",""
"html-button-response","23","34887","0.0-2.0-1.10","1033","18","pre","6","evening","2026-03-25","2026-04-06","2026-03-31T03:25:40.344Z","Mozilla/5.0 (iPhone; CPU iPhone OS 18_7 like Mac OS X) AppleWebKit/605.1.15 (KHTML, like Gecko) Mobile/15E148","370","644","300","","2706","<div class=""prompt"" style=""font-size:24px; margin-bottom:20px;"">Which word describes you more?</div>","1","pairing","11","quitter","distressed","NegNeg","7","0","negative","negative","7","distressed","right","true"
"html-keyboard-response","24","35689","0.0-2.0-0.11","1033","18","pre","6","evening","2026-03-25","2026-04-06","2026-03-31T03:25:40.344Z","Mozilla/5.0 (iPhone; CPU iPhone OS 18_7 like Mac OS X) AppleWebKit/605.1.15 (KHTML, like Gecko) Mobile/15E148","370","644","300","","null","<div style=""font-size:60px;"">+</div>","null","fixation","","","","","","","","","","","",""
"html-button-response","25","37413","0.0-2.0-1.11","1033","18","pre","6","evening","2026-03-25","2026-04-06","2026-03-31T03:25:40.344Z","Mozilla/5.0 (iPhone; CPU iPhone OS 18_7 like Mac OS X) AppleWebKit/605.1.15 (KHTML, like Gecko) Mobile/15E148","370","644","300","","1722","<div class=""prompt"" style=""font-size:24px; margin-bottom:20px;"">Which word describes you more?</div>","0","pairing","12","authentic","flawless","PosPos","82","10","positive","positive","72","authentic","left","true"
"html-keyboard-response","26","38214","0.0-2.0-0.12","1033","18","pre","6","evening","2026-03-25","2026-04-06","2026-03-31T03:25:40.344Z","Mozilla/5.0 (iPhone; CPU iPhone OS 18_7 like Mac OS X) AppleWebKit/605.1.15 (KHTML, like Gecko) Mobile/15E148","370","644","300","","null","<div style=""font-size:60px;"">+</div>","null","fixation","","","","","","","","","","","",""
"html-button-response","27","40138","0.0-2.0-1.12","1033","18","pre","6","evening","2026-03-25","2026-04-06","2026-03-31T03:25:40.344Z","Mozilla/5.0 (iPhone; CPU iPhone OS 18_7 like Mac OS X) AppleWebKit/605.1.15 (KHTML, like Gecko) Mobile/15E148","370","644","300","","1923","<div class=""prompt"" style=""font-size:24px; margin-bottom:20px;"">Which word describes you more?</div>","1","pairing","13","worthless","grateful","PosNeg","0","82","negative","positive","82","grateful","right","true"
"html-keyboard-response","28","40940","0.0-2.0-0.13","1033","18","pre","6","evening","2026-03-25","2026-04-06","2026-03-31T03:25:40.344Z","Mozilla/5.0 (iPhone; CPU iPhone OS 18_7 like Mac OS X) AppleWebKit/605.1.15 (KHTML, like Gecko) Mobile/15E148","370","644","300","","null","<div style=""font-size:60px;"">+</div>","null","fixation","","","","","","","","","","","",""
"html-button-response","29","42688","0.0-2.0-1.13","1033","18","pre","6","evening","2026-03-25","2026-04-06","2026-03-31T03:25:40.344Z","Mozilla/5.0 (iPhone; CPU iPhone OS 18_7 like Mac OS X) AppleWebKit/605.1.15 (KHTML, like Gecko) Mobile/15E148","370","644","300","","1747","<div class=""prompt"" style=""font-size:24px; margin-bottom:20px;"">Which word describes you more?</div>","0","pairing","14","energetic","headache","PosNeg","58","6","positive","negative","52","energetic","left","true"
"html-keyboard-response","30","43490","0.0-2.0-0.14","1033","18","pre","6","evening","2026-03-25","2026-04-06","2026-03-31T03:25:40.344Z","Mozilla/5.0 (iPhone; CPU iPhone OS 18_7 like Mac OS X) AppleWebKit/605.1.15 (KHTML, like Gecko) Mobile/15E148","370","644","300","","null","<div style=""font-size:60px;"">+</div>","null","fixation","","","","","","","","","","","",""
"html-button-response","31","45789","0.0-2.0-1.14","1033","18","pre","6","evening","2026-03-25","2026-04-06","2026-03-31T03:25:40.344Z","Mozilla/5.0 (iPhone; CPU iPhone OS 18_7 like Mac OS X) AppleWebKit/605.1.15 (KHTML, like Gecko) Mobile/15E148","370","644","300","","2298","<div class=""prompt"" style=""font-size:24px; margin-bottom:20px;"">Which word describes you more?</div>","0","pairing","15","lovable","credible","PosPos","82","87","positive","positive","5","lovable","left","true"
"html-keyboard-response","32","46591","0.0-2.0-0.15","1033","18","pre","6","evening","2026-03-25","2026-04-06","2026-03-31T03:25:40.344Z","Mozilla/5.0 (iPhone; CPU iPhone OS 18_7 like Mac OS X) AppleWebKit/605.1.15 (KHTML, like Gecko) Mobile/15E148","370","644","300","","null","<div style=""font-size:60px;"">+</div>","null","fixation","","","","","","","","","","","",""
"html-button-response","33","47989","0.0-2.0-1.15","1033","18","pre","6","evening","2026-03-25","2026-04-06","2026-03-31T03:25:40.344Z","Mozilla/5.0 (iPhone; CPU iPhone OS 18_7 like Mac OS X) AppleWebKit/605.1.15 (KHTML, like Gecko) Mobile/15E148","370","644","300","","1397","<div class=""prompt"" style=""font-size:24px; margin-bottom:20px;"">Which word describes you more?</div>","0","pairing","16","reliable","incompetent","PosNeg","88","0","positive","negative","88","reliable","left","true"
"html-keyboard-response","34","48791","0.0-2.0-0.16","1033","18","pre","6","evening","2026-03-25","2026-04-06","2026-03-31T03:25:40.344Z","Mozilla/5.0 (iPhone; CPU iPhone OS 18_7 like Mac OS X) AppleWebKit/605.1.15 (KHTML, like Gecko) Mobile/15E148","370","644","300","","null","<div style=""font-size:60px;"">+</div>","null","fixation","","","","","","","","","","","",""
"html-button-response","35","50781","0.0-2.0-1.16","1033","18","pre","6","evening","2026-03-25","2026-04-06","2026-03-31T03:25:40.344Z","Mozilla/5.0 (iPhone; CPU iPhone OS 18_7 like Mac OS X) AppleWebKit/605.1.15 (KHTML, like Gecko) Mobile/15E148","370","644","300","","1989","<div class=""prompt"" style=""font-size:24px; margin-bottom:20px;"">Which word describes you more?</div>","1","pairing","17","parasite","pest","NegNeg","0","7","negative","negative","7","pest","right","true"
"html-keyboard-response","36","51583","0.0-2.0-0.17","1033","18","pre","6","evening","2026-03-25","2026-04-06","2026-03-31T03:25:40.344Z","Mozilla/5.0 (iPhone; CPU iPhone OS 18_7 like Mac OS X) AppleWebKit/605.1.15 (KHTML, like Gecko) Mobile/15E148","370","644","300","","null","<div style=""font-size:60px;"">+</div>","null","fixation","","","","","","","","","","","",""
"html-button-response","37","54332","0.0-2.0-1.17","1033","18","pre","6","evening","2026-03-25","2026-04-06","2026-03-31T03:25:40.344Z","Mozilla/5.0 (iPhone; CPU iPhone OS 18_7 like Mac OS X) AppleWebKit/605.1.15 (KHTML, like Gecko) Mobile/15E148","370","644","300","","2747","<div class=""prompt"" style=""font-size:24px; margin-bottom:20px;"">Which word describes you more?</div>","1","pairing","18","empty","achiever","PosNeg","0","89","negative","positive","89","achiever","right","true"
"html-keyboard-response","38","55134","0.0-2.0-0.18","1033","18","pre","6","evening","2026-03-25","2026-04-06","2026-03-31T03:25:40.344Z","Mozilla/5.0 (iPhone; CPU iPhone OS 18_7 like Mac OS X) AppleWebKit/605.1.15 (KHTML, like Gecko) Mobile/15E148","370","644","300","","null","<div style=""font-size:60px;"">+</div>","null","fixation","","","","","","","","","","","",""
"html-button-response","39","56807","0.0-2.0-1.18","1033","18","pre","6","evening","2026-03-25","2026-04-06","2026-03-31T03:25:40.344Z","Mozilla/5.0 (iPhone; CPU iPhone OS 18_7 like Mac OS X) AppleWebKit/605.1.15 (KHTML, like Gecko) Mobile/15E148","370","644","300","","1672","<div class=""prompt"" style=""font-size:24px; margin-bottom:20px;"">Which word describes you more?</div>","1","pairing","19","attractive","awkward","PosNeg","46","13","positive","negative","33","awkward","right","true"
"html-keyboard-response","40","57610","0.0-2.0-0.19","1033","18","pre","6","evening","2026-03-25","2026-04-06","2026-03-31T03:25:40.344Z","Mozilla/5.0 (iPhone; CPU iPhone OS 18_7 like Mac OS X) AppleWebKit/605.1.15 (KHTML, like Gecko) Mobile/15E148","370","644","300","","null","<div style=""font-size:60px;"">+</div>","null","fixation","","","","","","","","","","","",""
"html-button-response","41","59997","0.0-2.0-1.19","1033","18","pre","6","evening","2026-03-25","2026-04-06","2026-03-31T03:25:40.344Z","Mozilla/5.0 (iPhone; CPU iPhone OS 18_7 like Mac OS X) AppleWebKit/605.1.15 (KHTML, like Gecko) Mobile/15E148","370","644","300","","2386","<div class=""prompt"" style=""font-size:24px; margin-bottom:20px;"">Which word describes you more?</div>","1","pairing","20","unforgivable","reliable","PosNeg","0","88","negative","positive","88","reliable","right","true"
"html-keyboard-response","42","60799","0.0-2.0-0.20","1033","18","pre","6","evening","2026-03-25","2026-04-06","2026-03-31T03:25:40.344Z","Mozilla/5.0 (iPhone; CPU iPhone OS 18_7 like Mac OS X) AppleWebKit/605.1.15 (KHTML, like Gecko) Mobile/15E148","370","644","300","","null","<div style=""font-size:60px;"">+</div>","null","fixation","","","","","","","","","","","",""
"html-button-response","43","62650","0.0-2.0-1.20","1033","18","pre","6","evening","2026-03-25","2026-04-06","2026-03-31T03:25:40.344Z","Mozilla/5.0 (iPhone; CPU iPhone OS 18_7 like Mac OS X) AppleWebKit/605.1.15 (KHTML, like Gecko) Mobile/15E148","370","644","300","","1849","<div class=""prompt"" style=""font-size:24px; margin-bottom:20px;"">Which word describes you more?</div>","1","pairing","21","unique","skilled","PosPos","88","87","positive","positive","1","skilled","right","true"
"html-keyboard-response","44","63452","0.0-2.0-0.21","1033","18","pre","6","evening","2026-03-25","2026-04-06","2026-03-31T03:25:40.344Z","Mozilla/5.0 (iPhone; CPU iPhone OS 18_7 like Mac OS X) AppleWebKit/605.1.15 (KHTML, like Gecko) Mobile/15E148","370","644","300","","null","<div style=""font-size:60px;"">+</div>","null","fixation","","","","","","","","","","","",""
"html-button-response","45","65067","0.0-2.0-1.21","1033","18","pre","6","evening","2026-03-25","2026-04-06","2026-03-31T03:25:40.344Z","Mozilla/5.0 (iPhone; CPU iPhone OS 18_7 like Mac OS X) AppleWebKit/605.1.15 (KHTML, like Gecko) Mobile/15E148","370","644","300","","1614","<div class=""prompt"" style=""font-size:24px; margin-bottom:20px;"">Which word describes you more?</div>","1","pairing","22","unforgivable","alluring","PosNeg","0","28","negative","positive","28","alluring","right","true"
"html-keyboard-response","46","65869","0.0-2.0-0.22","1033","18","pre","6","evening","2026-03-25","2026-04-06","2026-03-31T03:25:40.344Z","Mozilla/5.0 (iPhone; CPU iPhone OS 18_7 like Mac OS X) AppleWebKit/605.1.15 (KHTML, like Gecko) Mobile/15E148","370","644","300","","null","<div style=""font-size:60px;"">+</div>","null","fixation","","","","","","","","","","","",""
"html-button-response","47","67400","0.0-2.0-1.22","1033","18","pre","6","evening","2026-03-25","2026-04-06","2026-03-31T03:25:40.344Z","Mozilla/5.0 (iPhone; CPU iPhone OS 18_7 like Mac OS X) AppleWebKit/605.1.15 (KHTML, like Gecko) Mobile/15E148","370","644","300","","1530","<div class=""prompt"" style=""font-size:24px; margin-bottom:20px;"">Which word describes you more?</div>","1","pairing","23","liar","smiley","PosNeg","0","76","negative","positive","76","smiley","right","true"
"html-keyboard-response","48","68202","0.0-2.0-0.23","1033","18","pre","6","evening","2026-03-25","2026-04-06","2026-03-31T03:25:40.344Z","Mozilla/5.0 (iPhone; CPU iPhone OS 18_7 like Mac OS X) AppleWebKit/605.1.15 (KHTML, like Gecko) Mobile/15E148","370","644","300","","null","<div style=""font-size:60px;"">+</div>","null","fixation","","","","","","","","","","","",""
"html-button-response","49","70000","0.0-2.0-1.23","1033","18","pre","6","evening","2026-03-25","2026-04-06","2026-03-31T03:25:40.344Z","Mozilla/5.0 (iPhone; CPU iPhone OS 18_7 like Mac OS X) AppleWebKit/605.1.15 (KHTML, like Gecko) Mobile/15E148","370","644","300","","1797","<div class=""prompt"" style=""font-size:24px; margin-bottom:20px;"">Which word describes you more?</div>","1","pairing","24","incompetent","cooperative","PosNeg","0","88","negative","positive","88","cooperative","right","true"
"instructions","50","71101","0.0-3.0","1033","18","pre","6","evening","2026-03-25","2026-04-06","2026-03-31T03:25:40.344Z","Mozilla/5.0 (iPhone; CPU iPhone OS 18_7 like Mac OS X) AppleWebKit/605.1.15 (KHTML, like Gecko) Mobile/15E148","370","644","300","[{""page_index"":0,""viewing_time"":1099}]","1099","","","","","","","","","","","","","","",""
