"trial_type","trial_index","time_elapsed","internal_node_id","PUNS_ID","session_number","session_phase","session_day","session_slot","ema_start_date","ema_post_start_date","experiment_start","browser","screen_width","screen_height","timezone_offset","view_history","rt","stimulus","response","which_experiment_phase","trial_number","left_word","right_word","valence","left_base_rating","right_base_rating","left_valence","right_valence","abs_diff","participant_response","chosen_side","valid_response"
"pavlovia","0","2221","0.0-0.0","1021","43","post","5","morning","2026-02-12","2026-02-24","2026-02-28T17:08:19.857Z","Mozilla/5.0 (iPhone; CPU iPhone OS 18_7 like Mac OS X) AppleWebKit/605.1.15 (KHTML, like Gecko) Mobile/15E148","408","729","480","","","","","","","","","","","","","","","","",""
"instructions","1","21318","0.0-1.0","1021","43","post","5","morning","2026-02-12","2026-02-24","2026-02-28T17:08:19.857Z","Mozilla/5.0 (iPhone; CPU iPhone OS 18_7 like Mac OS X) AppleWebKit/605.1.15 (KHTML, like Gecko) Mobile/15E148","408","729","480","[{""page_index"":0,""viewing_time"":12614},{""page_index"":1,""viewing_time"":5284},{""page_index"":2,""viewing_time"":624},{""page_index"":3,""viewing_time"":568}]","19090","","","","","","","","","","","","","","",""
"html-keyboard-response","2","22121","0.0-2.0-0.0","1021","43","post","5","morning","2026-02-12","2026-02-24","2026-02-28T17:08:19.857Z","Mozilla/5.0 (iPhone; CPU iPhone OS 18_7 like Mac OS X) AppleWebKit/605.1.15 (KHTML, like Gecko) Mobile/15E148","408","729","480","","null","<div style=""font-size:60px;"">+</div>","null","fixation","","","","","","","","","","","",""
"html-button-response","3","23778","0.0-2.0-1.0","1021","43","post","5","morning","2026-02-12","2026-02-24","2026-02-28T17:08:19.857Z","Mozilla/5.0 (iPhone; CPU iPhone OS 18_7 like Mac OS X) AppleWebKit/605.1.15 (KHTML, like Gecko) Mobile/15E148","408","729","480","","1653","<div class=""prompt"" style=""font-size:24px; margin-bottom:20px;"">Which word describes you more?</div>","0","pairing","1","playful","patient","PosPos","99","60","positive","positive","39","playful","left","true"
"html-keyboard-response","4","24580","0.0-2.0-0.1","1021","43","post","5","morning","2026-02-12","2026-02-24","2026-02-28T17:08:19.857Z","Mozilla/5.0 (iPhone; CPU iPhone OS 18_7 like Mac OS X) AppleWebKit/605.1.15 (KHTML, like Gecko) Mobile/15E148","408","729","480","","null","<div style=""font-size:60px;"">+</div>","null","fixation","","","","","","","","","","","",""
"html-button-response","5","25985","0.0-2.0-1.1","1021","43","post","5","morning","2026-02-12","2026-02-24","2026-02-28T17:08:19.857Z","Mozilla/5.0 (iPhone; CPU iPhone OS 18_7 like Mac OS X) AppleWebKit/605.1.15 (KHTML, like Gecko) Mobile/15E148","408","729","480","","1405","<div class=""prompt"" style=""font-size:24px; margin-bottom:20px;"">Which word describes you more?</div>","0","pairing","2","reliable","healthy","PosPos","94","84","positive","positive","10","reliable","left","true"
"html-keyboard-response","6","26788","0.0-2.0-0.2","1021","43","post","5","morning","2026-02-12","2026-02-24","2026-02-28T17:08:19.857Z","Mozilla/5.0 (iPhone; CPU iPhone OS 18_7 like Mac OS X) AppleWebKit/605.1.15 (KHTML, like Gecko) Mobile/15E148","408","729","480","","null","<div style=""font-size:60px;"">+</div>","null","fixation","","","","","","","","","","","",""
"html-button-response","7","29510","0.0-2.0-1.2","1021","43","post","5","morning","2026-02-12","2026-02-24","2026-02-28T17:08:19.857Z","Mozilla/5.0 (iPhone; CPU iPhone OS 18_7 like Mac OS X) AppleWebKit/605.1.15 (KHTML, like Gecko) Mobile/15E148","408","729","480","","2722","<div class=""prompt"" style=""font-size:24px; margin-bottom:20px;"">Which word describes you more?</div>","1","pairing","3","heartbroken","easygoing","PosNeg","56","89","negative","positive","33","easygoing","right","true"
"html-keyboard-response","8","30313","0.0-2.0-0.3","1021","43","post","5","morning","2026-02-12","2026-02-24","2026-02-28T17:08:19.857Z","Mozilla/5.0 (iPhone; CPU iPhone OS 18_7 like Mac OS X) AppleWebKit/605.1.15 (KHTML, like Gecko) Mobile/15E148","408","729","480","","null","<div style=""font-size:60px;"">+</div>","null","fixation","","","","","","","","","","","",""
"html-button-response","9","31713","0.0-2.0-1.3","1021","43","post","5","morning","2026-02-12","2026-02-24","2026-02-28T17:08:19.857Z","Mozilla/5.0 (iPhone; CPU iPhone OS 18_7 like Mac OS X) AppleWebKit/605.1.15 (KHTML, like Gecko) Mobile/15E148","408","729","480","","1399","<div class=""prompt"" style=""font-size:24px; margin-bottom:20px;"">Which word describes you more?</div>","0","pairing","4","sensible","vengeful","PosNeg","93","6","positive","negative","87","sensible","left","true"
"html-keyboard-response","10","32515","0.0-2.0-0.4","1021","43","post","5","morning","2026-02-12","2026-02-24","2026-02-28T17:08:19.857Z","Mozilla/5.0 (iPhone; CPU iPhone OS 18_7 like Mac OS X) AppleWebKit/605.1.15 (KHTML, like Gecko) Mobile/15E148","408","729","480","","null","<div style=""font-size:60px;"">+</div>","null","fixation","","","","","","","","","","","",""
"html-button-response","11","34112","0.0-2.0-1.4","1021","43","post","5","morning","2026-02-12","2026-02-24","2026-02-28T17:08:19.857Z","Mozilla/5.0 (iPhone; CPU iPhone OS 18_7 like Mac OS X) AppleWebKit/605.1.15 (KHTML, like Gecko) Mobile/15E148","408","729","480","","1595","<div class=""prompt"" style=""font-size:24px; margin-bottom:20px;"">Which word describes you more?</div>","0","pairing","5","heartbroken","unwanted","NegNeg","56","5","negative","negative","51","heartbroken","left","true"
"html-keyboard-response","12","34914","0.0-2.0-0.5","1021","43","post","5","morning","2026-02-12","2026-02-24","2026-02-28T17:08:19.857Z","Mozilla/5.0 (iPhone; CPU iPhone OS 18_7 like Mac OS X) AppleWebKit/605.1.15 (KHTML, like Gecko) Mobile/15E148","408","729","480","","null","<div style=""font-size:60px;"">+</div>","null","fixation","","","","","","","","","","","",""
"html-button-response","13","36332","0.0-2.0-1.5","1021","43","post","5","morning","2026-02-12","2026-02-24","2026-02-28T17:08:19.857Z","Mozilla/5.0 (iPhone; CPU iPhone OS 18_7 like Mac OS X) AppleWebKit/605.1.15 (KHTML, like Gecko) Mobile/15E148","408","729","480","","1416","<div class=""prompt"" style=""font-size:24px; margin-bottom:20px;"">Which word describes you more?</div>","1","pairing","6","boring","anxious","NegNeg","0","72","negative","negative","72","anxious","right","true"
"html-keyboard-response","14","37134","0.0-2.0-0.6","1021","43","post","5","morning","2026-02-12","2026-02-24","2026-02-28T17:08:19.857Z","Mozilla/5.0 (iPhone; CPU iPhone OS 18_7 like Mac OS X) AppleWebKit/605.1.15 (KHTML, like Gecko) Mobile/15E148","408","729","480","","null","<div style=""font-size:60px;"">+</div>","null","fixation","","","","","","","","","","","",""
"html-button-response","15","39198","0.0-2.0-1.6","1021","43","post","5","morning","2026-02-12","2026-02-24","2026-02-28T17:08:19.857Z","Mozilla/5.0 (iPhone; CPU iPhone OS 18_7 like Mac OS X) AppleWebKit/605.1.15 (KHTML, like Gecko) Mobile/15E148","408","729","480","","2063","<div class=""prompt"" style=""font-size:24px; margin-bottom:20px;"">Which word describes you more?</div>","1","pairing","7","immoral","awkward","NegNeg","1","22","negative","negative","21","awkward","right","true"
"html-keyboard-response","16","40000","0.0-2.0-0.7","1021","43","post","5","morning","2026-02-12","2026-02-24","2026-02-28T17:08:19.857Z","Mozilla/5.0 (iPhone; CPU iPhone OS 18_7 like Mac OS X) AppleWebKit/605.1.15 (KHTML, like Gecko) Mobile/15E148","408","729","480","","null","<div style=""font-size:60px;"">+</div>","null","fixation","","","","","","","","","","","",""
"html-button-response","17","41749","0.0-2.0-1.7","1021","43","post","5","morning","2026-02-12","2026-02-24","2026-02-28T17:08:19.857Z","Mozilla/5.0 (iPhone; CPU iPhone OS 18_7 like Mac OS X) AppleWebKit/605.1.15 (KHTML, like Gecko) Mobile/15E148","408","729","480","","1747","<div class=""prompt"" style=""font-size:24px; margin-bottom:20px;"">Which word describes you more?</div>","0","pairing","8","playful","garbage","PosNeg","99","4","positive","negative","95","playful","left","true"
"html-keyboard-response","18","42551","0.0-2.0-0.8","1021","43","post","5","morning","2026-02-12","2026-02-24","2026-02-28T17:08:19.857Z","Mozilla/5.0 (iPhone; CPU iPhone OS 18_7 like Mac OS X) AppleWebKit/605.1.15 (KHTML, like Gecko) Mobile/15E148","408","729","480","","null","<div style=""font-size:60px;"">+</div>","null","fixation","","","","","","","","","","","",""
"html-button-response","19","44816","0.0-2.0-1.8","1021","43","post","5","morning","2026-02-12","2026-02-24","2026-02-28T17:08:19.857Z","Mozilla/5.0 (iPhone; CPU iPhone OS 18_7 like Mac OS X) AppleWebKit/605.1.15 (KHTML, like Gecko) Mobile/15E148","408","729","480","","2263","<div class=""prompt"" style=""font-size:24px; margin-bottom:20px;"">Which word describes you more?</div>","1","pairing","9","flawless","companion","PosPos","50","96","positive","positive","46","companion","right","true"
"html-keyboard-response","20","45618","0.0-2.0-0.9","1021","43","post","5","morning","2026-02-12","2026-02-24","2026-02-28T17:08:19.857Z","Mozilla/5.0 (iPhone; CPU iPhone OS 18_7 like Mac OS X) AppleWebKit/605.1.15 (KHTML, like Gecko) Mobile/15E148","408","729","480","","null","<div style=""font-size:60px;"">+</div>","null","fixation","","","","","","","","","","","",""
"html-button-response","21","48483","0.0-2.0-1.9","1021","43","post","5","morning","2026-02-12","2026-02-24","2026-02-28T17:08:19.857Z","Mozilla/5.0 (iPhone; CPU iPhone OS 18_7 like Mac OS X) AppleWebKit/605.1.15 (KHTML, like Gecko) Mobile/15E148","408","729","480","","2863","<div class=""prompt"" style=""font-size:24px; margin-bottom:20px;"">Which word describes you more?</div>","1","pairing","10","appealing","attractive","PosPos","97","93","positive","positive","4","attractive","right","true"
"html-keyboard-response","22","49287","0.0-2.0-0.10","1021","43","post","5","morning","2026-02-12","2026-02-24","2026-02-28T17:08:19.857Z","Mozilla/5.0 (iPhone; CPU iPhone OS 18_7 like Mac OS X) AppleWebKit/605.1.15 (KHTML, like Gecko) Mobile/15E148","408","729","480","","null","<div style=""font-size:60px;"">+</div>","null","fixation","","","","","","","","","","","",""
"html-button-response","23","52333","0.0-2.0-1.10","1021","43","post","5","morning","2026-02-12","2026-02-24","2026-02-28T17:08:19.857Z","Mozilla/5.0 (iPhone; CPU iPhone OS 18_7 like Mac OS X) AppleWebKit/605.1.15 (KHTML, like Gecko) Mobile/15E148","408","729","480","","3045","<div class=""prompt"" style=""font-size:24px; margin-bottom:20px;"">Which word describes you more?</div>","1","pairing","11","selfish","anxious","NegNeg","16","72","negative","negative","56","anxious","right","true"
"html-keyboard-response","24","53135","0.0-2.0-0.11","1021","43","post","5","morning","2026-02-12","2026-02-24","2026-02-28T17:08:19.857Z","Mozilla/5.0 (iPhone; CPU iPhone OS 18_7 like Mac OS X) AppleWebKit/605.1.15 (KHTML, like Gecko) Mobile/15E148","408","729","480","","null","<div style=""font-size:60px;"">+</div>","null","fixation","","","","","","","","","","","",""
"html-button-response","25","55858","0.0-2.0-1.11","1021","43","post","5","morning","2026-02-12","2026-02-24","2026-02-28T17:08:19.857Z","Mozilla/5.0 (iPhone; CPU iPhone OS 18_7 like Mac OS X) AppleWebKit/605.1.15 (KHTML, like Gecko) Mobile/15E148","408","729","480","","2721","<div class=""prompt"" style=""font-size:24px; margin-bottom:20px;"">Which word describes you more?</div>","1","pairing","12","arrogant","unique","PosNeg","50","86","negative","positive","36","unique","right","true"
"html-keyboard-response","26","56661","0.0-2.0-0.12","1021","43","post","5","morning","2026-02-12","2026-02-24","2026-02-28T17:08:19.857Z","Mozilla/5.0 (iPhone; CPU iPhone OS 18_7 like Mac OS X) AppleWebKit/605.1.15 (KHTML, like Gecko) Mobile/15E148","408","729","480","","null","<div style=""font-size:60px;"">+</div>","null","fixation","","","","","","","","","","","",""
"html-button-response","27","58642","0.0-2.0-1.12","1021","43","post","5","morning","2026-02-12","2026-02-24","2026-02-28T17:08:19.857Z","Mozilla/5.0 (iPhone; CPU iPhone OS 18_7 like Mac OS X) AppleWebKit/605.1.15 (KHTML, like Gecko) Mobile/15E148","408","729","480","","1979","<div class=""prompt"" style=""font-size:24px; margin-bottom:20px;"">Which word describes you more?</div>","1","pairing","13","rude","clever","PosNeg","2","98","negative","positive","96","clever","right","true"
"html-keyboard-response","28","59444","0.0-2.0-0.13","1021","43","post","5","morning","2026-02-12","2026-02-24","2026-02-28T17:08:19.857Z","Mozilla/5.0 (iPhone; CPU iPhone OS 18_7 like Mac OS X) AppleWebKit/605.1.15 (KHTML, like Gecko) Mobile/15E148","408","729","480","","null","<div style=""font-size:60px;"">+</div>","null","fixation","","","","","","","","","","","",""
"html-button-response","29","60967","0.0-2.0-1.13","1021","43","post","5","morning","2026-02-12","2026-02-24","2026-02-28T17:08:19.857Z","Mozilla/5.0 (iPhone; CPU iPhone OS 18_7 like Mac OS X) AppleWebKit/605.1.15 (KHTML, like Gecko) Mobile/15E148","408","729","480","","1522","<div class=""prompt"" style=""font-size:24px; margin-bottom:20px;"">Which word describes you more?</div>","1","pairing","14","slob","spontaneous","PosNeg","0","92","negative","positive","92","spontaneous","right","true"
"html-keyboard-response","30","61769","0.0-2.0-0.14","1021","43","post","5","morning","2026-02-12","2026-02-24","2026-02-28T17:08:19.857Z","Mozilla/5.0 (iPhone; CPU iPhone OS 18_7 like Mac OS X) AppleWebKit/605.1.15 (KHTML, like Gecko) Mobile/15E148","408","729","480","","null","<div style=""font-size:60px;"">+</div>","null","fixation","","","","","","","","","","","",""
"html-button-response","31","65417","0.0-2.0-1.14","1021","43","post","5","morning","2026-02-12","2026-02-24","2026-02-28T17:08:19.857Z","Mozilla/5.0 (iPhone; CPU iPhone OS 18_7 like Mac OS X) AppleWebKit/605.1.15 (KHTML, like Gecko) Mobile/15E148","408","729","480","","3645","<div class=""prompt"" style=""font-size:24px; margin-bottom:20px;"">Which word describes you more?</div>","1","pairing","15","energetic","helper","PosPos","95","87","positive","positive","8","helper","right","true"
"html-keyboard-response","32","66219","0.0-2.0-0.15","1021","43","post","5","morning","2026-02-12","2026-02-24","2026-02-28T17:08:19.857Z","Mozilla/5.0 (iPhone; CPU iPhone OS 18_7 like Mac OS X) AppleWebKit/605.1.15 (KHTML, like Gecko) Mobile/15E148","408","729","480","","null","<div style=""font-size:60px;"">+</div>","null","fixation","","","","","","","","","","","",""
"html-button-response","33","68642","0.0-2.0-1.15","1021","43","post","5","morning","2026-02-12","2026-02-24","2026-02-28T17:08:19.857Z","Mozilla/5.0 (iPhone; CPU iPhone OS 18_7 like Mac OS X) AppleWebKit/605.1.15 (KHTML, like Gecko) Mobile/15E148","408","729","480","","2422","<div class=""prompt"" style=""font-size:24px; margin-bottom:20px;"">Which word describes you more?</div>","1","pairing","16","authentic","humorous","PosPos","95","99","positive","positive","4","humorous","right","true"
"html-keyboard-response","34","69445","0.0-2.0-0.16","1021","43","post","5","morning","2026-02-12","2026-02-24","2026-02-28T17:08:19.857Z","Mozilla/5.0 (iPhone; CPU iPhone OS 18_7 like Mac OS X) AppleWebKit/605.1.15 (KHTML, like Gecko) Mobile/15E148","408","729","480","","null","<div style=""font-size:60px;"">+</div>","null","fixation","","","","","","","","","","","",""
"html-button-response","35","72893","0.0-2.0-1.16","1021","43","post","5","morning","2026-02-12","2026-02-24","2026-02-28T17:08:19.857Z","Mozilla/5.0 (iPhone; CPU iPhone OS 18_7 like Mac OS X) AppleWebKit/605.1.15 (KHTML, like Gecko) Mobile/15E148","408","729","480","","3447","<div class=""prompt"" style=""font-size:24px; margin-bottom:20px;"">Which word describes you more?</div>","0","pairing","17","resourceful","shameful","PosNeg","99","14","positive","negative","85","resourceful","left","true"
"html-keyboard-response","36","73695","0.0-2.0-0.17","1021","43","post","5","morning","2026-02-12","2026-02-24","2026-02-28T17:08:19.857Z","Mozilla/5.0 (iPhone; CPU iPhone OS 18_7 like Mac OS X) AppleWebKit/605.1.15 (KHTML, like Gecko) Mobile/15E148","408","729","480","","null","<div style=""font-size:60px;"">+</div>","null","fixation","","","","","","","","","","","",""
"html-button-response","37","77244","0.0-2.0-1.17","1021","43","post","5","morning","2026-02-12","2026-02-24","2026-02-28T17:08:19.857Z","Mozilla/5.0 (iPhone; CPU iPhone OS 18_7 like Mac OS X) AppleWebKit/605.1.15 (KHTML, like Gecko) Mobile/15E148","408","729","480","","3547","<div class=""prompt"" style=""font-size:24px; margin-bottom:20px;"">Which word describes you more?</div>","0","pairing","18","heartbroken","flawless","PosNeg","56","50","negative","positive","6","heartbroken","left","true"
"html-keyboard-response","38","78048","0.0-2.0-0.18","1021","43","post","5","morning","2026-02-12","2026-02-24","2026-02-28T17:08:19.857Z","Mozilla/5.0 (iPhone; CPU iPhone OS 18_7 like Mac OS X) AppleWebKit/605.1.15 (KHTML, like Gecko) Mobile/15E148","408","729","480","","null","<div style=""font-size:60px;"">+</div>","null","fixation","","","","","","","","","","","",""
"html-button-response","39","82635","0.0-2.0-1.18","1021","43","post","5","morning","2026-02-12","2026-02-24","2026-02-28T17:08:19.857Z","Mozilla/5.0 (iPhone; CPU iPhone OS 18_7 like Mac OS X) AppleWebKit/605.1.15 (KHTML, like Gecko) Mobile/15E148","408","729","480","","4587","<div class=""prompt"" style=""font-size:24px; margin-bottom:20px;"">Which word describes you more?</div>","0","pairing","19","alluring","unbearable","PosNeg","96","37","positive","negative","59","alluring","left","true"
"html-keyboard-response","40","83438","0.0-2.0-0.19","1021","43","post","5","morning","2026-02-12","2026-02-24","2026-02-28T17:08:19.857Z","Mozilla/5.0 (iPhone; CPU iPhone OS 18_7 like Mac OS X) AppleWebKit/605.1.15 (KHTML, like Gecko) Mobile/15E148","408","729","480","","null","<div style=""font-size:60px;"">+</div>","null","fixation","","","","","","","","","","","",""
"html-button-response","41","86444","0.0-2.0-1.19","1021","43","post","5","morning","2026-02-12","2026-02-24","2026-02-28T17:08:19.857Z","Mozilla/5.0 (iPhone; CPU iPhone OS 18_7 like Mac OS X) AppleWebKit/605.1.15 (KHTML, like Gecko) Mobile/15E148","408","729","480","","3005","<div class=""prompt"" style=""font-size:24px; margin-bottom:20px;"">Which word describes you more?</div>","0","pairing","20","appealing","garbage","PosNeg","97","4","positive","negative","93","appealing","left","true"
"html-keyboard-response","42","87246","0.0-2.0-0.20","1021","43","post","5","morning","2026-02-12","2026-02-24","2026-02-28T17:08:19.857Z","Mozilla/5.0 (iPhone; CPU iPhone OS 18_7 like Mac OS X) AppleWebKit/605.1.15 (KHTML, like Gecko) Mobile/15E148","408","729","480","","null","<div style=""font-size:60px;"">+</div>","null","fixation","","","","","","","","","","","",""
"html-button-response","43","88702","0.0-2.0-1.20","1021","43","post","5","morning","2026-02-12","2026-02-24","2026-02-28T17:08:19.857Z","Mozilla/5.0 (iPhone; CPU iPhone OS 18_7 like Mac OS X) AppleWebKit/605.1.15 (KHTML, like Gecko) Mobile/15E148","408","729","480","","1455","<div class=""prompt"" style=""font-size:24px; margin-bottom:20px;"">Which word describes you more?</div>","1","pairing","21","vermin","visionary","PosNeg","0","94","negative","positive","94","visionary","right","true"
"html-keyboard-response","44","89505","0.0-2.0-0.21","1021","43","post","5","morning","2026-02-12","2026-02-24","2026-02-28T17:08:19.857Z","Mozilla/5.0 (iPhone; CPU iPhone OS 18_7 like Mac OS X) AppleWebKit/605.1.15 (KHTML, like Gecko) Mobile/15E148","408","729","480","","null","<div style=""font-size:60px;"">+</div>","null","fixation","","","","","","","","","","","",""
"html-button-response","45","94111","0.0-2.0-1.21","1021","43","post","5","morning","2026-02-12","2026-02-24","2026-02-28T17:08:19.857Z","Mozilla/5.0 (iPhone; CPU iPhone OS 18_7 like Mac OS X) AppleWebKit/605.1.15 (KHTML, like Gecko) Mobile/15E148","408","729","480","","4606","<div class=""prompt"" style=""font-size:24px; margin-bottom:20px;"">Which word describes you more?</div>","0","pairing","22","anxious","empty","NegNeg","72","2","negative","negative","70","anxious","left","true"
"html-keyboard-response","46","94913","0.0-2.0-0.22","1021","43","post","5","morning","2026-02-12","2026-02-24","2026-02-28T17:08:19.857Z","Mozilla/5.0 (iPhone; CPU iPhone OS 18_7 like Mac OS X) AppleWebKit/605.1.15 (KHTML, like Gecko) Mobile/15E148","408","729","480","","null","<div style=""font-size:60px;"">+</div>","null","fixation","","","","","","","","","","","",""
"html-button-response","47","98603","0.0-2.0-1.22","1021","43","post","5","morning","2026-02-12","2026-02-24","2026-02-28T17:08:19.857Z","Mozilla/5.0 (iPhone; CPU iPhone OS 18_7 like Mac OS X) AppleWebKit/605.1.15 (KHTML, like Gecko) Mobile/15E148","408","729","480","","3689","<div class=""prompt"" style=""font-size:24px; margin-bottom:20px;"">Which word describes you more?</div>","0","pairing","23","tolerant","arrogant","PosNeg","70","50","positive","negative","20","tolerant","left","true"
"html-keyboard-response","48","99405","0.0-2.0-0.23","1021","43","post","5","morning","2026-02-12","2026-02-24","2026-02-28T17:08:19.857Z","Mozilla/5.0 (iPhone; CPU iPhone OS 18_7 like Mac OS X) AppleWebKit/605.1.15 (KHTML, like Gecko) Mobile/15E148","408","729","480","","null","<div style=""font-size:60px;"">+</div>","null","fixation","","","","","","","","","","","",""
"html-button-response","49","102129","0.0-2.0-1.23","1021","43","post","5","morning","2026-02-12","2026-02-24","2026-02-28T17:08:19.857Z","Mozilla/5.0 (iPhone; CPU iPhone OS 18_7 like Mac OS X) AppleWebKit/605.1.15 (KHTML, like Gecko) Mobile/15E148","408","729","480","","2722","<div class=""prompt"" style=""font-size:24px; margin-bottom:20px;"">Which word describes you more?</div>","0","pairing","24","stingy","degenerate","NegNeg","7","3","negative","negative","4","stingy","left","true"
"instructions","50","102828","0.0-3.0","1021","43","post","5","morning","2026-02-12","2026-02-24","2026-02-28T17:08:19.857Z","Mozilla/5.0 (iPhone; CPU iPhone OS 18_7 like Mac OS X) AppleWebKit/605.1.15 (KHTML, like Gecko) Mobile/15E148","408","729","480","[{""page_index"":0,""viewing_time"":699}]","699","","","","","","","","","","","","","","",""
