"trial_type","trial_index","time_elapsed","internal_node_id","PUNS_ID","session_number","session_phase","session_day","session_slot","ema_start_date","ema_post_start_date","experiment_start","browser","screen_width","screen_height","timezone_offset","view_history","rt","stimulus","response","which_experiment_phase","trial_number","left_word","right_word","valence","left_base_rating","right_base_rating","left_valence","right_valence","abs_diff","participant_response","chosen_side","valid_response"
"pavlovia","0","1087","0.0-0.0","1071","38","post","3","afternoon","2026-06-09","2026-06-23","2026-06-25T16:12:01.687Z","Mozilla/5.0 (iPhone; CPU iPhone OS 18_7 like Mac OS X) AppleWebKit/605.1.15 (KHTML, like Gecko) Mobile/15E148","408","733","240","","","","","","","","","","","","","","","","",""
"instructions","1","6193","0.0-1.0","1071","38","post","3","afternoon","2026-06-09","2026-06-23","2026-06-25T16:12:01.687Z","Mozilla/5.0 (iPhone; CPU iPhone OS 18_7 like Mac OS X) AppleWebKit/605.1.15 (KHTML, like Gecko) Mobile/15E148","408","733","240","[{""page_index"":0,""viewing_time"":3129},{""page_index"":1,""viewing_time"":538},{""page_index"":2,""viewing_time"":749},{""page_index"":3,""viewing_time"":685}]","5102","","","","","","","","","","","","","","",""
"html-keyboard-response","2","6996","0.0-2.0-0.0","1071","38","post","3","afternoon","2026-06-09","2026-06-23","2026-06-25T16:12:01.687Z","Mozilla/5.0 (iPhone; CPU iPhone OS 18_7 like Mac OS X) AppleWebKit/605.1.15 (KHTML, like Gecko) Mobile/15E148","408","733","240","","null","<div style=""font-size:60px;"">+</div>","null","fixation","","","","","","","","","","","",""
"html-button-response","3","8644","0.0-2.0-1.0","1071","38","post","3","afternoon","2026-06-09","2026-06-23","2026-06-25T16:12:01.687Z","Mozilla/5.0 (iPhone; CPU iPhone OS 18_7 like Mac OS X) AppleWebKit/605.1.15 (KHTML, like Gecko) Mobile/15E148","408","733","240","","1643","<div class=""prompt"" style=""font-size:24px; margin-bottom:20px;"">Which word describes you more?</div>","0","pairing","1","flawless","unfaithful","PosNeg","15","10","positive","negative","5","flawless","left","true"
"html-keyboard-response","4","9447","0.0-2.0-0.1","1071","38","post","3","afternoon","2026-06-09","2026-06-23","2026-06-25T16:12:01.687Z","Mozilla/5.0 (iPhone; CPU iPhone OS 18_7 like Mac OS X) AppleWebKit/605.1.15 (KHTML, like Gecko) Mobile/15E148","408","733","240","","null","<div style=""font-size:60px;"">+</div>","null","fixation","","","","","","","","","","","",""
"html-button-response","5","10558","0.0-2.0-1.1","1071","38","post","3","afternoon","2026-06-09","2026-06-23","2026-06-25T16:12:01.687Z","Mozilla/5.0 (iPhone; CPU iPhone OS 18_7 like Mac OS X) AppleWebKit/605.1.15 (KHTML, like Gecko) Mobile/15E148","408","733","240","","1109","<div class=""prompt"" style=""font-size:24px; margin-bottom:20px;"">Which word describes you more?</div>","1","pairing","2","tolerant","satisfied","PosPos","18","92","positive","positive","74","satisfied","right","true"
"html-keyboard-response","6","11360","0.0-2.0-0.2","1071","38","post","3","afternoon","2026-06-09","2026-06-23","2026-06-25T16:12:01.687Z","Mozilla/5.0 (iPhone; CPU iPhone OS 18_7 like Mac OS X) AppleWebKit/605.1.15 (KHTML, like Gecko) Mobile/15E148","408","733","240","","null","<div style=""font-size:60px;"">+</div>","null","fixation","","","","","","","","","","","",""
"html-button-response","7","12818","0.0-2.0-1.2","1071","38","post","3","afternoon","2026-06-09","2026-06-23","2026-06-25T16:12:01.687Z","Mozilla/5.0 (iPhone; CPU iPhone OS 18_7 like Mac OS X) AppleWebKit/605.1.15 (KHTML, like Gecko) Mobile/15E148","408","733","240","","1456","<div class=""prompt"" style=""font-size:24px; margin-bottom:20px;"">Which word describes you more?</div>","0","pairing","3","unforgivable","repulsive","NegNeg","4","5","negative","negative","1","unforgivable","left","true"
"html-keyboard-response","8","13620","0.0-2.0-0.3","1071","38","post","3","afternoon","2026-06-09","2026-06-23","2026-06-25T16:12:01.687Z","Mozilla/5.0 (iPhone; CPU iPhone OS 18_7 like Mac OS X) AppleWebKit/605.1.15 (KHTML, like Gecko) Mobile/15E148","408","733","240","","null","<div style=""font-size:60px;"">+</div>","null","fixation","","","","","","","","","","","",""
"html-button-response","9","14600","0.0-2.0-1.3","1071","38","post","3","afternoon","2026-06-09","2026-06-23","2026-06-25T16:12:01.687Z","Mozilla/5.0 (iPhone; CPU iPhone OS 18_7 like Mac OS X) AppleWebKit/605.1.15 (KHTML, like Gecko) Mobile/15E148","408","733","240","","977","<div class=""prompt"" style=""font-size:24px; margin-bottom:20px;"">Which word describes you more?</div>","0","pairing","4","satisfied","flawless","PosPos","92","15","positive","positive","77","satisfied","left","true"
"html-keyboard-response","10","15403","0.0-2.0-0.4","1071","38","post","3","afternoon","2026-06-09","2026-06-23","2026-06-25T16:12:01.687Z","Mozilla/5.0 (iPhone; CPU iPhone OS 18_7 like Mac OS X) AppleWebKit/605.1.15 (KHTML, like Gecko) Mobile/15E148","408","733","240","","null","<div style=""font-size:60px;"">+</div>","null","fixation","","","","","","","","","","","",""
"html-button-response","11","16277","0.0-2.0-1.4","1071","38","post","3","afternoon","2026-06-09","2026-06-23","2026-06-25T16:12:01.687Z","Mozilla/5.0 (iPhone; CPU iPhone OS 18_7 like Mac OS X) AppleWebKit/605.1.15 (KHTML, like Gecko) Mobile/15E148","408","733","240","","872","<div class=""prompt"" style=""font-size:24px; margin-bottom:20px;"">Which word describes you more?</div>","1","pairing","5","fraud","distressed","NegNeg","11","12","negative","negative","1","distressed","right","true"
"html-keyboard-response","12","17079","0.0-2.0-0.5","1071","38","post","3","afternoon","2026-06-09","2026-06-23","2026-06-25T16:12:01.687Z","Mozilla/5.0 (iPhone; CPU iPhone OS 18_7 like Mac OS X) AppleWebKit/605.1.15 (KHTML, like Gecko) Mobile/15E148","408","733","240","","null","<div style=""font-size:60px;"">+</div>","null","fixation","","","","","","","","","","","",""
"html-button-response","13","17859","0.0-2.0-1.5","1071","38","post","3","afternoon","2026-06-09","2026-06-23","2026-06-25T16:12:01.687Z","Mozilla/5.0 (iPhone; CPU iPhone OS 18_7 like Mac OS X) AppleWebKit/605.1.15 (KHTML, like Gecko) Mobile/15E148","408","733","240","","778","<div class=""prompt"" style=""font-size:24px; margin-bottom:20px;"">Which word describes you more?</div>","0","pairing","6","authentic","parasite","PosNeg","79","8","positive","negative","71","authentic","left","true"
"html-keyboard-response","14","18661","0.0-2.0-0.6","1071","38","post","3","afternoon","2026-06-09","2026-06-23","2026-06-25T16:12:01.687Z","Mozilla/5.0 (iPhone; CPU iPhone OS 18_7 like Mac OS X) AppleWebKit/605.1.15 (KHTML, like Gecko) Mobile/15E148","408","733","240","","null","<div style=""font-size:60px;"">+</div>","null","fixation","","","","","","","","","","","",""
"html-button-response","15","20019","0.0-2.0-1.6","1071","38","post","3","afternoon","2026-06-09","2026-06-23","2026-06-25T16:12:01.687Z","Mozilla/5.0 (iPhone; CPU iPhone OS 18_7 like Mac OS X) AppleWebKit/605.1.15 (KHTML, like Gecko) Mobile/15E148","408","733","240","","1355","<div class=""prompt"" style=""font-size:24px; margin-bottom:20px;"">Which word describes you more?</div>","0","pairing","7","reliable","unlucky","PosNeg","65","29","positive","negative","36","reliable","left","true"
"html-keyboard-response","16","20821","0.0-2.0-0.7","1071","38","post","3","afternoon","2026-06-09","2026-06-23","2026-06-25T16:12:01.687Z","Mozilla/5.0 (iPhone; CPU iPhone OS 18_7 like Mac OS X) AppleWebKit/605.1.15 (KHTML, like Gecko) Mobile/15E148","408","733","240","","null","<div style=""font-size:60px;"">+</div>","null","fixation","","","","","","","","","","","",""
"html-button-response","17","22285","0.0-2.0-1.7","1071","38","post","3","afternoon","2026-06-09","2026-06-23","2026-06-25T16:12:01.687Z","Mozilla/5.0 (iPhone; CPU iPhone OS 18_7 like Mac OS X) AppleWebKit/605.1.15 (KHTML, like Gecko) Mobile/15E148","408","733","240","","1463","<div class=""prompt"" style=""font-size:24px; margin-bottom:20px;"">Which word describes you more?</div>","0","pairing","8","virtuous","jealous","PosNeg","80","12","positive","negative","68","virtuous","left","true"
"html-keyboard-response","18","23088","0.0-2.0-0.8","1071","38","post","3","afternoon","2026-06-09","2026-06-23","2026-06-25T16:12:01.687Z","Mozilla/5.0 (iPhone; CPU iPhone OS 18_7 like Mac OS X) AppleWebKit/605.1.15 (KHTML, like Gecko) Mobile/15E148","408","733","240","","null","<div style=""font-size:60px;"">+</div>","null","fixation","","","","","","","","","","","",""
"html-button-response","19","24079","0.0-2.0-1.8","1071","38","post","3","afternoon","2026-06-09","2026-06-23","2026-06-25T16:12:01.687Z","Mozilla/5.0 (iPhone; CPU iPhone OS 18_7 like Mac OS X) AppleWebKit/605.1.15 (KHTML, like Gecko) Mobile/15E148","408","733","240","","990","<div class=""prompt"" style=""font-size:24px; margin-bottom:20px;"">Which word describes you more?</div>","1","pairing","9","slob","credible","PosNeg","8","81","negative","positive","73","credible","right","true"
"html-keyboard-response","20","24881","0.0-2.0-0.9","1071","38","post","3","afternoon","2026-06-09","2026-06-23","2026-06-25T16:12:01.687Z","Mozilla/5.0 (iPhone; CPU iPhone OS 18_7 like Mac OS X) AppleWebKit/605.1.15 (KHTML, like Gecko) Mobile/15E148","408","733","240","","null","<div style=""font-size:60px;"">+</div>","null","fixation","","","","","","","","","","","",""
"html-button-response","21","26877","0.0-2.0-1.9","1071","38","post","3","afternoon","2026-06-09","2026-06-23","2026-06-25T16:12:01.687Z","Mozilla/5.0 (iPhone; CPU iPhone OS 18_7 like Mac OS X) AppleWebKit/605.1.15 (KHTML, like Gecko) Mobile/15E148","408","733","240","","1995","<div class=""prompt"" style=""font-size:24px; margin-bottom:20px;"">Which word describes you more?</div>","0","pairing","10","anxious","tolerant","PosNeg","61","18","negative","positive","43","anxious","left","true"
"html-keyboard-response","22","27680","0.0-2.0-0.10","1071","38","post","3","afternoon","2026-06-09","2026-06-23","2026-06-25T16:12:01.687Z","Mozilla/5.0 (iPhone; CPU iPhone OS 18_7 like Mac OS X) AppleWebKit/605.1.15 (KHTML, like Gecko) Mobile/15E148","408","733","240","","null","<div style=""font-size:60px;"">+</div>","null","fixation","","","","","","","","","","","",""
"html-button-response","23","28628","0.0-2.0-1.10","1071","38","post","3","afternoon","2026-06-09","2026-06-23","2026-06-25T16:12:01.687Z","Mozilla/5.0 (iPhone; CPU iPhone OS 18_7 like Mac OS X) AppleWebKit/605.1.15 (KHTML, like Gecko) Mobile/15E148","408","733","240","","946","<div class=""prompt"" style=""font-size:24px; margin-bottom:20px;"">Which word describes you more?</div>","0","pairing","11","anxious","unforgivable","NegNeg","61","4","negative","negative","57","anxious","left","true"
"html-keyboard-response","24","29430","0.0-2.0-0.11","1071","38","post","3","afternoon","2026-06-09","2026-06-23","2026-06-25T16:12:01.687Z","Mozilla/5.0 (iPhone; CPU iPhone OS 18_7 like Mac OS X) AppleWebKit/605.1.15 (KHTML, like Gecko) Mobile/15E148","408","733","240","","null","<div style=""font-size:60px;"">+</div>","null","fixation","","","","","","","","","","","",""
"html-button-response","25","30294","0.0-2.0-1.11","1071","38","post","3","afternoon","2026-06-09","2026-06-23","2026-06-25T16:12:01.687Z","Mozilla/5.0 (iPhone; CPU iPhone OS 18_7 like Mac OS X) AppleWebKit/605.1.15 (KHTML, like Gecko) Mobile/15E148","408","733","240","","862","<div class=""prompt"" style=""font-size:24px; margin-bottom:20px;"">Which word describes you more?</div>","0","pairing","12","friend","adventurous","PosPos","76","68","positive","positive","8","friend","left","true"
"html-keyboard-response","26","31096","0.0-2.0-0.12","1071","38","post","3","afternoon","2026-06-09","2026-06-23","2026-06-25T16:12:01.687Z","Mozilla/5.0 (iPhone; CPU iPhone OS 18_7 like Mac OS X) AppleWebKit/605.1.15 (KHTML, like Gecko) Mobile/15E148","408","733","240","","null","<div style=""font-size:60px;"">+</div>","null","fixation","","","","","","","","","","","",""
"html-button-response","27","34085","0.0-2.0-1.12","1071","38","post","3","afternoon","2026-06-09","2026-06-23","2026-06-25T16:12:01.687Z","Mozilla/5.0 (iPhone; CPU iPhone OS 18_7 like Mac OS X) AppleWebKit/605.1.15 (KHTML, like Gecko) Mobile/15E148","408","733","240","","2988","<div class=""prompt"" style=""font-size:24px; margin-bottom:20px;"">Which word describes you more?</div>","1","pairing","13","lifeless","satisfied","PosNeg","21","92","negative","positive","71","satisfied","right","true"
"html-keyboard-response","28","34887","0.0-2.0-0.13","1071","38","post","3","afternoon","2026-06-09","2026-06-23","2026-06-25T16:12:01.687Z","Mozilla/5.0 (iPhone; CPU iPhone OS 18_7 like Mac OS X) AppleWebKit/605.1.15 (KHTML, like Gecko) Mobile/15E148","408","733","240","","null","<div style=""font-size:60px;"">+</div>","null","fixation","","","","","","","","","","","",""
"html-button-response","29","36303","0.0-2.0-1.13","1071","38","post","3","afternoon","2026-06-09","2026-06-23","2026-06-25T16:12:01.687Z","Mozilla/5.0 (iPhone; CPU iPhone OS 18_7 like Mac OS X) AppleWebKit/605.1.15 (KHTML, like Gecko) Mobile/15E148","408","733","240","","1414","<div class=""prompt"" style=""font-size:24px; margin-bottom:20px;"">Which word describes you more?</div>","0","pairing","14","esteemed","playful","PosPos","47","65","positive","positive","18","esteemed","left","true"
"html-keyboard-response","30","37105","0.0-2.0-0.14","1071","38","post","3","afternoon","2026-06-09","2026-06-23","2026-06-25T16:12:01.687Z","Mozilla/5.0 (iPhone; CPU iPhone OS 18_7 like Mac OS X) AppleWebKit/605.1.15 (KHTML, like Gecko) Mobile/15E148","408","733","240","","null","<div style=""font-size:60px;"">+</div>","null","fixation","","","","","","","","","","","",""
"html-button-response","31","38595","0.0-2.0-1.14","1071","38","post","3","afternoon","2026-06-09","2026-06-23","2026-06-25T16:12:01.687Z","Mozilla/5.0 (iPhone; CPU iPhone OS 18_7 like Mac OS X) AppleWebKit/605.1.15 (KHTML, like Gecko) Mobile/15E148","408","733","240","","1488","<div class=""prompt"" style=""font-size:24px; margin-bottom:20px;"">Which word describes you more?</div>","1","pairing","15","phony","seeker","PosNeg","9","18","negative","positive","9","seeker","right","true"
"html-keyboard-response","32","39397","0.0-2.0-0.15","1071","38","post","3","afternoon","2026-06-09","2026-06-23","2026-06-25T16:12:01.687Z","Mozilla/5.0 (iPhone; CPU iPhone OS 18_7 like Mac OS X) AppleWebKit/605.1.15 (KHTML, like Gecko) Mobile/15E148","408","733","240","","null","<div style=""font-size:60px;"">+</div>","null","fixation","","","","","","","","","","","",""
"html-button-response","33","41637","0.0-2.0-1.15","1071","38","post","3","afternoon","2026-06-09","2026-06-23","2026-06-25T16:12:01.687Z","Mozilla/5.0 (iPhone; CPU iPhone OS 18_7 like Mac OS X) AppleWebKit/605.1.15 (KHTML, like Gecko) Mobile/15E148","408","733","240","","2238","<div class=""prompt"" style=""font-size:24px; margin-bottom:20px;"">Which word describes you more?</div>","0","pairing","16","wise","outcast","PosNeg","69","14","positive","negative","55","wise","left","true"
"html-keyboard-response","34","42439","0.0-2.0-0.16","1071","38","post","3","afternoon","2026-06-09","2026-06-23","2026-06-25T16:12:01.687Z","Mozilla/5.0 (iPhone; CPU iPhone OS 18_7 like Mac OS X) AppleWebKit/605.1.15 (KHTML, like Gecko) Mobile/15E148","408","733","240","","null","<div style=""font-size:60px;"">+</div>","null","fixation","","","","","","","","","","","",""
"html-button-response","35","45228","0.0-2.0-1.16","1071","38","post","3","afternoon","2026-06-09","2026-06-23","2026-06-25T16:12:01.687Z","Mozilla/5.0 (iPhone; CPU iPhone OS 18_7 like Mac OS X) AppleWebKit/605.1.15 (KHTML, like Gecko) Mobile/15E148","408","733","240","","2788","<div class=""prompt"" style=""font-size:24px; margin-bottom:20px;"">Which word describes you more?</div>","0","pairing","17","seeker","helpless","PosNeg","18","19","positive","negative","1","seeker","left","true"
"html-keyboard-response","36","46031","0.0-2.0-0.17","1071","38","post","3","afternoon","2026-06-09","2026-06-23","2026-06-25T16:12:01.687Z","Mozilla/5.0 (iPhone; CPU iPhone OS 18_7 like Mac OS X) AppleWebKit/605.1.15 (KHTML, like Gecko) Mobile/15E148","408","733","240","","null","<div style=""font-size:60px;"">+</div>","null","fixation","","","","","","","","","","","",""
"html-button-response","37","46945","0.0-2.0-1.17","1071","38","post","3","afternoon","2026-06-09","2026-06-23","2026-06-25T16:12:01.687Z","Mozilla/5.0 (iPhone; CPU iPhone OS 18_7 like Mac OS X) AppleWebKit/605.1.15 (KHTML, like Gecko) Mobile/15E148","408","733","240","","913","<div class=""prompt"" style=""font-size:24px; margin-bottom:20px;"">Which word describes you more?</div>","1","pairing","18","boring","tolerant","PosNeg","27","18","negative","positive","9","tolerant","right","true"
"html-keyboard-response","38","47747","0.0-2.0-0.18","1071","38","post","3","afternoon","2026-06-09","2026-06-23","2026-06-25T16:12:01.687Z","Mozilla/5.0 (iPhone; CPU iPhone OS 18_7 like Mac OS X) AppleWebKit/605.1.15 (KHTML, like Gecko) Mobile/15E148","408","733","240","","null","<div style=""font-size:60px;"">+</div>","null","fixation","","","","","","","","","","","",""
"html-button-response","39","48959","0.0-2.0-1.18","1071","38","post","3","afternoon","2026-06-09","2026-06-23","2026-06-25T16:12:01.687Z","Mozilla/5.0 (iPhone; CPU iPhone OS 18_7 like Mac OS X) AppleWebKit/605.1.15 (KHTML, like Gecko) Mobile/15E148","408","733","240","","1211","<div class=""prompt"" style=""font-size:24px; margin-bottom:20px;"">Which word describes you more?</div>","1","pairing","19","parasite","knowledgeable","PosNeg","8","72","negative","positive","64","knowledgeable","right","true"
"html-keyboard-response","40","49762","0.0-2.0-0.19","1071","38","post","3","afternoon","2026-06-09","2026-06-23","2026-06-25T16:12:01.687Z","Mozilla/5.0 (iPhone; CPU iPhone OS 18_7 like Mac OS X) AppleWebKit/605.1.15 (KHTML, like Gecko) Mobile/15E148","408","733","240","","null","<div style=""font-size:60px;"">+</div>","null","fixation","","","","","","","","","","","",""
"html-button-response","41","50661","0.0-2.0-1.19","1071","38","post","3","afternoon","2026-06-09","2026-06-23","2026-06-25T16:12:01.687Z","Mozilla/5.0 (iPhone; CPU iPhone OS 18_7 like Mac OS X) AppleWebKit/605.1.15 (KHTML, like Gecko) Mobile/15E148","408","733","240","","898","<div class=""prompt"" style=""font-size:24px; margin-bottom:20px;"">Which word describes you more?</div>","0","pairing","20","resourceful","unique","PosPos","52","96","positive","positive","44","resourceful","left","true"
"html-keyboard-response","42","51464","0.0-2.0-0.20","1071","38","post","3","afternoon","2026-06-09","2026-06-23","2026-06-25T16:12:01.687Z","Mozilla/5.0 (iPhone; CPU iPhone OS 18_7 like Mac OS X) AppleWebKit/605.1.15 (KHTML, like Gecko) Mobile/15E148","408","733","240","","null","<div style=""font-size:60px;"">+</div>","null","fixation","","","","","","","","","","","",""
"html-button-response","43","54337","0.0-2.0-1.20","1071","38","post","3","afternoon","2026-06-09","2026-06-23","2026-06-25T16:12:01.687Z","Mozilla/5.0 (iPhone; CPU iPhone OS 18_7 like Mac OS X) AppleWebKit/605.1.15 (KHTML, like Gecko) Mobile/15E148","408","733","240","","2872","<div class=""prompt"" style=""font-size:24px; margin-bottom:20px;"">Which word describes you more?</div>","0","pairing","21","jealous","defective","NegNeg","12","10","negative","negative","2","jealous","left","true"
"html-keyboard-response","44","55140","0.0-2.0-0.21","1071","38","post","3","afternoon","2026-06-09","2026-06-23","2026-06-25T16:12:01.687Z","Mozilla/5.0 (iPhone; CPU iPhone OS 18_7 like Mac OS X) AppleWebKit/605.1.15 (KHTML, like Gecko) Mobile/15E148","408","733","240","","null","<div style=""font-size:60px;"">+</div>","null","fixation","","","","","","","","","","","",""
"html-button-response","45","56821","0.0-2.0-1.21","1071","38","post","3","afternoon","2026-06-09","2026-06-23","2026-06-25T16:12:01.687Z","Mozilla/5.0 (iPhone; CPU iPhone OS 18_7 like Mac OS X) AppleWebKit/605.1.15 (KHTML, like Gecko) Mobile/15E148","408","733","240","","1680","<div class=""prompt"" style=""font-size:24px; margin-bottom:20px;"">Which word describes you more?</div>","0","pairing","22","distressed","irritating","NegNeg","12","8","negative","negative","4","distressed","left","true"
"html-keyboard-response","46","57623","0.0-2.0-0.22","1071","38","post","3","afternoon","2026-06-09","2026-06-23","2026-06-25T16:12:01.687Z","Mozilla/5.0 (iPhone; CPU iPhone OS 18_7 like Mac OS X) AppleWebKit/605.1.15 (KHTML, like Gecko) Mobile/15E148","408","733","240","","null","<div style=""font-size:60px;"">+</div>","null","fixation","","","","","","","","","","","",""
"html-button-response","47","58529","0.0-2.0-1.22","1071","38","post","3","afternoon","2026-06-09","2026-06-23","2026-06-25T16:12:01.687Z","Mozilla/5.0 (iPhone; CPU iPhone OS 18_7 like Mac OS X) AppleWebKit/605.1.15 (KHTML, like Gecko) Mobile/15E148","408","733","240","","902","<div class=""prompt"" style=""font-size:24px; margin-bottom:20px;"">Which word describes you more?</div>","1","pairing","23","creep","anxious","NegNeg","0","61","negative","negative","61","anxious","right","true"
"html-keyboard-response","48","59331","0.0-2.0-0.23","1071","38","post","3","afternoon","2026-06-09","2026-06-23","2026-06-25T16:12:01.687Z","Mozilla/5.0 (iPhone; CPU iPhone OS 18_7 like Mac OS X) AppleWebKit/605.1.15 (KHTML, like Gecko) Mobile/15E148","408","733","240","","null","<div style=""font-size:60px;"">+</div>","null","fixation","","","","","","","","","","","",""
"html-button-response","49","60387","0.0-2.0-1.23","1071","38","post","3","afternoon","2026-06-09","2026-06-23","2026-06-25T16:12:01.687Z","Mozilla/5.0 (iPhone; CPU iPhone OS 18_7 like Mac OS X) AppleWebKit/605.1.15 (KHTML, like Gecko) Mobile/15E148","408","733","240","","1055","<div class=""prompt"" style=""font-size:24px; margin-bottom:20px;"">Which word describes you more?</div>","0","pairing","24","capable","flawless","PosPos","78","15","positive","positive","63","capable","left","true"
"instructions","50","61012","0.0-3.0","1071","38","post","3","afternoon","2026-06-09","2026-06-23","2026-06-25T16:12:01.687Z","Mozilla/5.0 (iPhone; CPU iPhone OS 18_7 like Mac OS X) AppleWebKit/605.1.15 (KHTML, like Gecko) Mobile/15E148","408","733","240","[{""page_index"":0,""viewing_time"":622}]","622","","","","","","","","","","","","","","",""
