"trial_type","trial_index","time_elapsed","internal_node_id","PUNS_ID","session_number","session_phase","session_day","session_slot","ema_start_date","ema_post_start_date","experiment_start","browser","screen_width","screen_height","timezone_offset","view_history","rt","stimulus","response","which_experiment_phase","trial_number","left_word","right_word","valence","left_base_rating","right_base_rating","left_valence","right_valence","abs_diff","participant_response","chosen_side","valid_response"
"pavlovia","0","2052","0.0-0.0","1017","20","pre","7","afternoon","2026-02-16","2026-02-28","2026-02-22T23:31:49.497Z","Mozilla/5.0 (iPhone; CPU iPhone OS 18_7 like Mac OS X) AppleWebKit/605.1.15 (KHTML, like Gecko) Mobile/15E148","370","644","480","","","","","","","","","","","","","","","","",""
"instructions","1","5492","0.0-1.0","1017","20","pre","7","afternoon","2026-02-16","2026-02-28","2026-02-22T23:31:49.497Z","Mozilla/5.0 (iPhone; CPU iPhone OS 18_7 like Mac OS X) AppleWebKit/605.1.15 (KHTML, like Gecko) Mobile/15E148","370","644","480","[{""page_index"":0,""viewing_time"":1088},{""page_index"":1,""viewing_time"":700},{""page_index"":2,""viewing_time"":884},{""page_index"":3,""viewing_time"":766}]","3439","","","","","","","","","","","","","","",""
"html-keyboard-response","2","6296","0.0-2.0-0.0","1017","20","pre","7","afternoon","2026-02-16","2026-02-28","2026-02-22T23:31:49.497Z","Mozilla/5.0 (iPhone; CPU iPhone OS 18_7 like Mac OS X) AppleWebKit/605.1.15 (KHTML, like Gecko) Mobile/15E148","370","644","480","","null","<div style=""font-size:60px;"">+</div>","null","fixation","","","","","","","","","","","",""
"html-button-response","3","8211","0.0-2.0-1.0","1017","20","pre","7","afternoon","2026-02-16","2026-02-28","2026-02-22T23:31:49.497Z","Mozilla/5.0 (iPhone; CPU iPhone OS 18_7 like Mac OS X) AppleWebKit/605.1.15 (KHTML, like Gecko) Mobile/15E148","370","644","480","","1911","<div class=""prompt"" style=""font-size:24px; margin-bottom:20px;"">Which word describes you more?</div>","1","pairing","1","hateful","anxious","NegNeg","3","25","negative","negative","22","anxious","right","true"
"html-keyboard-response","4","9013","0.0-2.0-0.1","1017","20","pre","7","afternoon","2026-02-16","2026-02-28","2026-02-22T23:31:49.497Z","Mozilla/5.0 (iPhone; CPU iPhone OS 18_7 like Mac OS X) AppleWebKit/605.1.15 (KHTML, like Gecko) Mobile/15E148","370","644","480","","null","<div style=""font-size:60px;"">+</div>","null","fixation","","","","","","","","","","","",""
"html-button-response","5","10309","0.0-2.0-1.1","1017","20","pre","7","afternoon","2026-02-16","2026-02-28","2026-02-22T23:31:49.497Z","Mozilla/5.0 (iPhone; CPU iPhone OS 18_7 like Mac OS X) AppleWebKit/605.1.15 (KHTML, like Gecko) Mobile/15E148","370","644","480","","1293","<div class=""prompt"" style=""font-size:24px; margin-bottom:20px;"">Which word describes you more?</div>","1","pairing","2","sadistic","awkward","NegNeg","2","49","negative","negative","47","awkward","right","true"
"html-keyboard-response","6","11112","0.0-2.0-0.2","1017","20","pre","7","afternoon","2026-02-16","2026-02-28","2026-02-22T23:31:49.497Z","Mozilla/5.0 (iPhone; CPU iPhone OS 18_7 like Mac OS X) AppleWebKit/605.1.15 (KHTML, like Gecko) Mobile/15E148","370","644","480","","null","<div style=""font-size:60px;"">+</div>","null","fixation","","","","","","","","","","","",""
"html-button-response","7","12676","0.0-2.0-1.2","1017","20","pre","7","afternoon","2026-02-16","2026-02-28","2026-02-22T23:31:49.497Z","Mozilla/5.0 (iPhone; CPU iPhone OS 18_7 like Mac OS X) AppleWebKit/605.1.15 (KHTML, like Gecko) Mobile/15E148","370","644","480","","1563","<div class=""prompt"" style=""font-size:24px; margin-bottom:20px;"">Which word describes you more?</div>","0","pairing","3","flawless","vengeful","PosNeg","0","9","positive","negative","9","flawless","left","true"
"html-keyboard-response","8","13479","0.0-2.0-0.3","1017","20","pre","7","afternoon","2026-02-16","2026-02-28","2026-02-22T23:31:49.497Z","Mozilla/5.0 (iPhone; CPU iPhone OS 18_7 like Mac OS X) AppleWebKit/605.1.15 (KHTML, like Gecko) Mobile/15E148","370","644","480","","null","<div style=""font-size:60px;"">+</div>","null","fixation","","","","","","","","","","","",""
"html-button-response","9","14701","0.0-2.0-1.3","1017","20","pre","7","afternoon","2026-02-16","2026-02-28","2026-02-22T23:31:49.497Z","Mozilla/5.0 (iPhone; CPU iPhone OS 18_7 like Mac OS X) AppleWebKit/605.1.15 (KHTML, like Gecko) Mobile/15E148","370","644","480","","1222","<div class=""prompt"" style=""font-size:24px; margin-bottom:20px;"">Which word describes you more?</div>","1","pairing","4","prick","knowledgeable","PosNeg","2","88","negative","positive","86","knowledgeable","right","true"
"html-keyboard-response","10","15504","0.0-2.0-0.4","1017","20","pre","7","afternoon","2026-02-16","2026-02-28","2026-02-22T23:31:49.497Z","Mozilla/5.0 (iPhone; CPU iPhone OS 18_7 like Mac OS X) AppleWebKit/605.1.15 (KHTML, like Gecko) Mobile/15E148","370","644","480","","null","<div style=""font-size:60px;"">+</div>","null","fixation","","","","","","","","","","","",""
"html-button-response","11","17453","0.0-2.0-1.4","1017","20","pre","7","afternoon","2026-02-16","2026-02-28","2026-02-22T23:31:49.497Z","Mozilla/5.0 (iPhone; CPU iPhone OS 18_7 like Mac OS X) AppleWebKit/605.1.15 (KHTML, like Gecko) Mobile/15E148","370","644","480","","1945","<div class=""prompt"" style=""font-size:24px; margin-bottom:20px;"">Which word describes you more?</div>","1","pairing","5","smart","knowledgeable","PosPos","77","88","positive","positive","11","knowledgeable","right","true"
"html-keyboard-response","12","18256","0.0-2.0-0.5","1017","20","pre","7","afternoon","2026-02-16","2026-02-28","2026-02-22T23:31:49.497Z","Mozilla/5.0 (iPhone; CPU iPhone OS 18_7 like Mac OS X) AppleWebKit/605.1.15 (KHTML, like Gecko) Mobile/15E148","370","644","480","","null","<div style=""font-size:60px;"">+</div>","null","fixation","","","","","","","","","","","",""
"html-button-response","13","19970","0.0-2.0-1.5","1017","20","pre","7","afternoon","2026-02-16","2026-02-28","2026-02-22T23:31:49.497Z","Mozilla/5.0 (iPhone; CPU iPhone OS 18_7 like Mac OS X) AppleWebKit/605.1.15 (KHTML, like Gecko) Mobile/15E148","370","644","480","","1712","<div class=""prompt"" style=""font-size:24px; margin-bottom:20px;"">Which word describes you more?</div>","0","pairing","6","excited","awkward","PosNeg","80","49","positive","negative","31","excited","left","true"
"html-keyboard-response","14","20772","0.0-2.0-0.6","1017","20","pre","7","afternoon","2026-02-16","2026-02-28","2026-02-22T23:31:49.497Z","Mozilla/5.0 (iPhone; CPU iPhone OS 18_7 like Mac OS X) AppleWebKit/605.1.15 (KHTML, like Gecko) Mobile/15E148","370","644","480","","null","<div style=""font-size:60px;"">+</div>","null","fixation","","","","","","","","","","","",""
"html-button-response","15","21837","0.0-2.0-1.6","1017","20","pre","7","afternoon","2026-02-16","2026-02-28","2026-02-22T23:31:49.497Z","Mozilla/5.0 (iPhone; CPU iPhone OS 18_7 like Mac OS X) AppleWebKit/605.1.15 (KHTML, like Gecko) Mobile/15E148","370","644","480","","1063","<div class=""prompt"" style=""font-size:24px; margin-bottom:20px;"">Which word describes you more?</div>","1","pairing","7","toxic","achiever","PosNeg","4","87","negative","positive","83","achiever","right","true"
"html-keyboard-response","16","22639","0.0-2.0-0.7","1017","20","pre","7","afternoon","2026-02-16","2026-02-28","2026-02-22T23:31:49.497Z","Mozilla/5.0 (iPhone; CPU iPhone OS 18_7 like Mac OS X) AppleWebKit/605.1.15 (KHTML, like Gecko) Mobile/15E148","370","644","480","","null","<div style=""font-size:60px;"">+</div>","null","fixation","","","","","","","","","","","",""
"html-button-response","17","24170","0.0-2.0-1.7","1017","20","pre","7","afternoon","2026-02-16","2026-02-28","2026-02-22T23:31:49.497Z","Mozilla/5.0 (iPhone; CPU iPhone OS 18_7 like Mac OS X) AppleWebKit/605.1.15 (KHTML, like Gecko) Mobile/15E148","370","644","480","","1530","<div class=""prompt"" style=""font-size:24px; margin-bottom:20px;"">Which word describes you more?</div>","1","pairing","8","coward","legendary","PosNeg","49","10","negative","positive","39","legendary","right","true"
"html-keyboard-response","18","24972","0.0-2.0-0.8","1017","20","pre","7","afternoon","2026-02-16","2026-02-28","2026-02-22T23:31:49.497Z","Mozilla/5.0 (iPhone; CPU iPhone OS 18_7 like Mac OS X) AppleWebKit/605.1.15 (KHTML, like Gecko) Mobile/15E148","370","644","480","","null","<div style=""font-size:60px;"">+</div>","null","fixation","","","","","","","","","","","",""
"html-button-response","19","26488","0.0-2.0-1.8","1017","20","pre","7","afternoon","2026-02-16","2026-02-28","2026-02-22T23:31:49.497Z","Mozilla/5.0 (iPhone; CPU iPhone OS 18_7 like Mac OS X) AppleWebKit/605.1.15 (KHTML, like Gecko) Mobile/15E148","370","644","480","","1514","<div class=""prompt"" style=""font-size:24px; margin-bottom:20px;"">Which word describes you more?</div>","0","pairing","9","decisive","awful","PosNeg","49","6","positive","negative","43","decisive","left","true"
"html-keyboard-response","20","27290","0.0-2.0-0.9","1017","20","pre","7","afternoon","2026-02-16","2026-02-28","2026-02-22T23:31:49.497Z","Mozilla/5.0 (iPhone; CPU iPhone OS 18_7 like Mac OS X) AppleWebKit/605.1.15 (KHTML, like Gecko) Mobile/15E148","370","644","480","","null","<div style=""font-size:60px;"">+</div>","null","fixation","","","","","","","","","","","",""
"html-button-response","21","28863","0.0-2.0-1.9","1017","20","pre","7","afternoon","2026-02-16","2026-02-28","2026-02-22T23:31:49.497Z","Mozilla/5.0 (iPhone; CPU iPhone OS 18_7 like Mac OS X) AppleWebKit/605.1.15 (KHTML, like Gecko) Mobile/15E148","370","644","480","","1571","<div class=""prompt"" style=""font-size:24px; margin-bottom:20px;"">Which word describes you more?</div>","1","pairing","10","disgrace","alluring","PosNeg","0","21","negative","positive","21","alluring","right","true"
"html-keyboard-response","22","29665","0.0-2.0-0.10","1017","20","pre","7","afternoon","2026-02-16","2026-02-28","2026-02-22T23:31:49.497Z","Mozilla/5.0 (iPhone; CPU iPhone OS 18_7 like Mac OS X) AppleWebKit/605.1.15 (KHTML, like Gecko) Mobile/15E148","370","644","480","","null","<div style=""font-size:60px;"">+</div>","null","fixation","","","","","","","","","","","",""
"html-button-response","23","31622","0.0-2.0-1.10","1017","20","pre","7","afternoon","2026-02-16","2026-02-28","2026-02-22T23:31:49.497Z","Mozilla/5.0 (iPhone; CPU iPhone OS 18_7 like Mac OS X) AppleWebKit/605.1.15 (KHTML, like Gecko) Mobile/15E148","370","644","480","","1955","<div class=""prompt"" style=""font-size:24px; margin-bottom:20px;"">Which word describes you more?</div>","0","pairing","11","smiley","inspirational","PosPos","100","44","positive","positive","56","smiley","left","true"
"html-keyboard-response","24","32425","0.0-2.0-0.11","1017","20","pre","7","afternoon","2026-02-16","2026-02-28","2026-02-22T23:31:49.497Z","Mozilla/5.0 (iPhone; CPU iPhone OS 18_7 like Mac OS X) AppleWebKit/605.1.15 (KHTML, like Gecko) Mobile/15E148","370","644","480","","null","<div style=""font-size:60px;"">+</div>","null","fixation","","","","","","","","","","","",""
"html-button-response","25","34373","0.0-2.0-1.11","1017","20","pre","7","afternoon","2026-02-16","2026-02-28","2026-02-22T23:31:49.497Z","Mozilla/5.0 (iPhone; CPU iPhone OS 18_7 like Mac OS X) AppleWebKit/605.1.15 (KHTML, like Gecko) Mobile/15E148","370","644","480","","1944","<div class=""prompt"" style=""font-size:24px; margin-bottom:20px;"">Which word describes you more?</div>","1","pairing","12","sadistic","repulsive","NegNeg","2","2","negative","negative","0","repulsive","right","true"
"html-keyboard-response","26","35175","0.0-2.0-0.12","1017","20","pre","7","afternoon","2026-02-16","2026-02-28","2026-02-22T23:31:49.497Z","Mozilla/5.0 (iPhone; CPU iPhone OS 18_7 like Mac OS X) AppleWebKit/605.1.15 (KHTML, like Gecko) Mobile/15E148","370","644","480","","null","<div style=""font-size:60px;"">+</div>","null","fixation","","","","","","","","","","","",""
"html-button-response","27","37240","0.0-2.0-1.12","1017","20","pre","7","afternoon","2026-02-16","2026-02-28","2026-02-22T23:31:49.497Z","Mozilla/5.0 (iPhone; CPU iPhone OS 18_7 like Mac OS X) AppleWebKit/605.1.15 (KHTML, like Gecko) Mobile/15E148","370","644","480","","2063","<div class=""prompt"" style=""font-size:24px; margin-bottom:20px;"">Which word describes you more?</div>","0","pairing","13","inadequate","brave","PosNeg","25","68","negative","positive","43","inadequate","left","true"
"html-keyboard-response","28","38042","0.0-2.0-0.13","1017","20","pre","7","afternoon","2026-02-16","2026-02-28","2026-02-22T23:31:49.497Z","Mozilla/5.0 (iPhone; CPU iPhone OS 18_7 like Mac OS X) AppleWebKit/605.1.15 (KHTML, like Gecko) Mobile/15E148","370","644","480","","null","<div style=""font-size:60px;"">+</div>","null","fixation","","","","","","","","","","","",""
"html-button-response","29","39340","0.0-2.0-1.13","1017","20","pre","7","afternoon","2026-02-16","2026-02-28","2026-02-22T23:31:49.497Z","Mozilla/5.0 (iPhone; CPU iPhone OS 18_7 like Mac OS X) AppleWebKit/605.1.15 (KHTML, like Gecko) Mobile/15E148","370","644","480","","1297","<div class=""prompt"" style=""font-size:24px; margin-bottom:20px;"">Which word describes you more?</div>","1","pairing","14","defective","insecure","NegNeg","9","13","negative","negative","4","insecure","right","true"
"html-keyboard-response","30","40142","0.0-2.0-0.14","1017","20","pre","7","afternoon","2026-02-16","2026-02-28","2026-02-22T23:31:49.497Z","Mozilla/5.0 (iPhone; CPU iPhone OS 18_7 like Mac OS X) AppleWebKit/605.1.15 (KHTML, like Gecko) Mobile/15E148","370","644","480","","null","<div style=""font-size:60px;"">+</div>","null","fixation","","","","","","","","","","","",""
"html-button-response","31","42307","0.0-2.0-1.14","1017","20","pre","7","afternoon","2026-02-16","2026-02-28","2026-02-22T23:31:49.497Z","Mozilla/5.0 (iPhone; CPU iPhone OS 18_7 like Mac OS X) AppleWebKit/605.1.15 (KHTML, like Gecko) Mobile/15E148","370","644","480","","2164","<div class=""prompt"" style=""font-size:24px; margin-bottom:20px;"">Which word describes you more?</div>","1","pairing","15","legendary","distressed","PosNeg","10","45","positive","negative","35","distressed","right","true"
"html-keyboard-response","32","43109","0.0-2.0-0.15","1017","20","pre","7","afternoon","2026-02-16","2026-02-28","2026-02-22T23:31:49.497Z","Mozilla/5.0 (iPhone; CPU iPhone OS 18_7 like Mac OS X) AppleWebKit/605.1.15 (KHTML, like Gecko) Mobile/15E148","370","644","480","","null","<div style=""font-size:60px;"">+</div>","null","fixation","","","","","","","","","","","",""
"html-button-response","33","44849","0.0-2.0-1.15","1017","20","pre","7","afternoon","2026-02-16","2026-02-28","2026-02-22T23:31:49.497Z","Mozilla/5.0 (iPhone; CPU iPhone OS 18_7 like Mac OS X) AppleWebKit/605.1.15 (KHTML, like Gecko) Mobile/15E148","370","644","480","","1738","<div class=""prompt"" style=""font-size:24px; margin-bottom:20px;"">Which word describes you more?</div>","0","pairing","16","awkward","uninvited","NegNeg","49","9","negative","negative","40","awkward","left","true"
"html-keyboard-response","34","45652","0.0-2.0-0.16","1017","20","pre","7","afternoon","2026-02-16","2026-02-28","2026-02-22T23:31:49.497Z","Mozilla/5.0 (iPhone; CPU iPhone OS 18_7 like Mac OS X) AppleWebKit/605.1.15 (KHTML, like Gecko) Mobile/15E148","370","644","480","","null","<div style=""font-size:60px;"">+</div>","null","fixation","","","","","","","","","","","",""
"html-button-response","35","47784","0.0-2.0-1.16","1017","20","pre","7","afternoon","2026-02-16","2026-02-28","2026-02-22T23:31:49.497Z","Mozilla/5.0 (iPhone; CPU iPhone OS 18_7 like Mac OS X) AppleWebKit/605.1.15 (KHTML, like Gecko) Mobile/15E148","370","644","480","","2130","<div class=""prompt"" style=""font-size:24px; margin-bottom:20px;"">Which word describes you more?</div>","0","pairing","17","enthusiastic","flawless","PosPos","75","0","positive","positive","75","enthusiastic","left","true"
"html-keyboard-response","36","48586","0.0-2.0-0.17","1017","20","pre","7","afternoon","2026-02-16","2026-02-28","2026-02-22T23:31:49.497Z","Mozilla/5.0 (iPhone; CPU iPhone OS 18_7 like Mac OS X) AppleWebKit/605.1.15 (KHTML, like Gecko) Mobile/15E148","370","644","480","","null","<div style=""font-size:60px;"">+</div>","null","fixation","","","","","","","","","","","",""
"html-button-response","37","50017","0.0-2.0-1.17","1017","20","pre","7","afternoon","2026-02-16","2026-02-28","2026-02-22T23:31:49.497Z","Mozilla/5.0 (iPhone; CPU iPhone OS 18_7 like Mac OS X) AppleWebKit/605.1.15 (KHTML, like Gecko) Mobile/15E148","370","644","480","","1430","<div class=""prompt"" style=""font-size:24px; margin-bottom:20px;"">Which word describes you more?</div>","0","pairing","18","smiley","hesitant","PosNeg","100","19","positive","negative","81","smiley","left","true"
"html-keyboard-response","38","50819","0.0-2.0-0.18","1017","20","pre","7","afternoon","2026-02-16","2026-02-28","2026-02-22T23:31:49.497Z","Mozilla/5.0 (iPhone; CPU iPhone OS 18_7 like Mac OS X) AppleWebKit/605.1.15 (KHTML, like Gecko) Mobile/15E148","370","644","480","","null","<div style=""font-size:60px;"">+</div>","null","fixation","","","","","","","","","","","",""
"html-button-response","39","52718","0.0-2.0-1.18","1017","20","pre","7","afternoon","2026-02-16","2026-02-28","2026-02-22T23:31:49.497Z","Mozilla/5.0 (iPhone; CPU iPhone OS 18_7 like Mac OS X) AppleWebKit/605.1.15 (KHTML, like Gecko) Mobile/15E148","370","644","480","","1897","<div class=""prompt"" style=""font-size:24px; margin-bottom:20px;"">Which word describes you more?</div>","0","pairing","19","anxious","graceful","PosNeg","25","16","negative","positive","9","anxious","left","true"
"html-keyboard-response","40","53519","0.0-2.0-0.19","1017","20","pre","7","afternoon","2026-02-16","2026-02-28","2026-02-22T23:31:49.497Z","Mozilla/5.0 (iPhone; CPU iPhone OS 18_7 like Mac OS X) AppleWebKit/605.1.15 (KHTML, like Gecko) Mobile/15E148","370","644","480","","null","<div style=""font-size:60px;"">+</div>","null","fixation","","","","","","","","","","","",""
"html-button-response","41","55343","0.0-2.0-1.19","1017","20","pre","7","afternoon","2026-02-16","2026-02-28","2026-02-22T23:31:49.497Z","Mozilla/5.0 (iPhone; CPU iPhone OS 18_7 like Mac OS X) AppleWebKit/605.1.15 (KHTML, like Gecko) Mobile/15E148","370","644","480","","1823","<div class=""prompt"" style=""font-size:24px; margin-bottom:20px;"">Which word describes you more?</div>","0","pairing","20","hopeful","champion","PosPos","48","35","positive","positive","13","hopeful","left","true"
"html-keyboard-response","42","56145","0.0-2.0-0.20","1017","20","pre","7","afternoon","2026-02-16","2026-02-28","2026-02-22T23:31:49.497Z","Mozilla/5.0 (iPhone; CPU iPhone OS 18_7 like Mac OS X) AppleWebKit/605.1.15 (KHTML, like Gecko) Mobile/15E148","370","644","480","","null","<div style=""font-size:60px;"">+</div>","null","fixation","","","","","","","","","","","",""
"html-button-response","43","57361","0.0-2.0-1.20","1017","20","pre","7","afternoon","2026-02-16","2026-02-28","2026-02-22T23:31:49.497Z","Mozilla/5.0 (iPhone; CPU iPhone OS 18_7 like Mac OS X) AppleWebKit/605.1.15 (KHTML, like Gecko) Mobile/15E148","370","644","480","","1213","<div class=""prompt"" style=""font-size:24px; margin-bottom:20px;"">Which word describes you more?</div>","1","pairing","21","degenerate","authentic","PosNeg","2","87","negative","positive","85","authentic","right","true"
"html-keyboard-response","44","58163","0.0-2.0-0.21","1017","20","pre","7","afternoon","2026-02-16","2026-02-28","2026-02-22T23:31:49.497Z","Mozilla/5.0 (iPhone; CPU iPhone OS 18_7 like Mac OS X) AppleWebKit/605.1.15 (KHTML, like Gecko) Mobile/15E148","370","644","480","","null","<div style=""font-size:60px;"">+</div>","null","fixation","","","","","","","","","","","",""
"html-button-response","45","59960","0.0-2.0-1.21","1017","20","pre","7","afternoon","2026-02-16","2026-02-28","2026-02-22T23:31:49.497Z","Mozilla/5.0 (iPhone; CPU iPhone OS 18_7 like Mac OS X) AppleWebKit/605.1.15 (KHTML, like Gecko) Mobile/15E148","370","644","480","","1796","<div class=""prompt"" style=""font-size:24px; margin-bottom:20px;"">Which word describes you more?</div>","1","pairing","22","failure","pest","NegNeg","5","2","negative","negative","3","pest","right","true"
"html-keyboard-response","46","60763","0.0-2.0-0.22","1017","20","pre","7","afternoon","2026-02-16","2026-02-28","2026-02-22T23:31:49.497Z","Mozilla/5.0 (iPhone; CPU iPhone OS 18_7 like Mac OS X) AppleWebKit/605.1.15 (KHTML, like Gecko) Mobile/15E148","370","644","480","","null","<div style=""font-size:60px;"">+</div>","null","fixation","","","","","","","","","","","",""
"html-button-response","47","63328","0.0-2.0-1.22","1017","20","pre","7","afternoon","2026-02-16","2026-02-28","2026-02-22T23:31:49.497Z","Mozilla/5.0 (iPhone; CPU iPhone OS 18_7 like Mac OS X) AppleWebKit/605.1.15 (KHTML, like Gecko) Mobile/15E148","370","644","480","","2563","<div class=""prompt"" style=""font-size:24px; margin-bottom:20px;"">Which word describes you more?</div>","1","pairing","23","flawless","talented","PosPos","0","82","positive","positive","82","talented","right","true"
"html-keyboard-response","48","64130","0.0-2.0-0.23","1017","20","pre","7","afternoon","2026-02-16","2026-02-28","2026-02-22T23:31:49.497Z","Mozilla/5.0 (iPhone; CPU iPhone OS 18_7 like Mac OS X) AppleWebKit/605.1.15 (KHTML, like Gecko) Mobile/15E148","370","644","480","","null","<div style=""font-size:60px;"">+</div>","null","fixation","","","","","","","","","","","",""
"html-button-response","49","65845","0.0-2.0-1.23","1017","20","pre","7","afternoon","2026-02-16","2026-02-28","2026-02-22T23:31:49.497Z","Mozilla/5.0 (iPhone; CPU iPhone OS 18_7 like Mac OS X) AppleWebKit/605.1.15 (KHTML, like Gecko) Mobile/15E148","370","644","480","","1713","<div class=""prompt"" style=""font-size:24px; margin-bottom:20px;"">Which word describes you more?</div>","1","pairing","24","champion","learner","PosPos","35","100","positive","positive","65","learner","right","true"
"instructions","50","66828","0.0-3.0","1017","20","pre","7","afternoon","2026-02-16","2026-02-28","2026-02-22T23:31:49.497Z","Mozilla/5.0 (iPhone; CPU iPhone OS 18_7 like Mac OS X) AppleWebKit/605.1.15 (KHTML, like Gecko) Mobile/15E148","370","644","480","[{""page_index"":0,""viewing_time"":982}]","982","","","","","","","","","","","","","","",""
