"trial_type","trial_index","time_elapsed","internal_node_id","PUNS_ID","session_number","session_phase","session_day","session_slot","ema_start_date","ema_post_start_date","experiment_start","browser","screen_width","screen_height","timezone_offset","view_history","rt","stimulus","response","which_experiment_phase","trial_number","left_word","right_word","valence","left_base_rating","right_base_rating","left_valence","right_valence","abs_diff","participant_response","chosen_side","valid_response"
"pavlovia","0","1571","0.0-0.0","1067","44","post","5","afternoon","2026-04-08","2026-04-21","2026-04-25T21:00:51.323Z","Mozilla/5.0 (iPhone; CPU iPhone OS 18_7 like Mac OS X) AppleWebKit/605.1.15 (KHTML, like Gecko) Mobile/15E148","358","632","240","","","","","","","","","","","","","","","","",""
"instructions","1","116036","0.0-1.0","1067","44","post","5","afternoon","2026-04-08","2026-04-21","2026-04-25T21:00:51.323Z","Mozilla/5.0 (iPhone; CPU iPhone OS 18_7 like Mac OS X) AppleWebKit/605.1.15 (KHTML, like Gecko) Mobile/15E148","358","632","240","[{""page_index"":0,""viewing_time"":5797},{""page_index"":1,""viewing_time"":106527},{""page_index"":2,""viewing_time"":1568},{""page_index"":3,""viewing_time"":564}]","114458","","","","","","","","","","","","","","",""
"html-keyboard-response","2","116843","0.0-2.0-0.0","1067","44","post","5","afternoon","2026-04-08","2026-04-21","2026-04-25T21:00:51.323Z","Mozilla/5.0 (iPhone; CPU iPhone OS 18_7 like Mac OS X) AppleWebKit/605.1.15 (KHTML, like Gecko) Mobile/15E148","358","632","240","","null","<div style=""font-size:60px;"">+</div>","null","fixation","","","","","","","","","","","",""
"html-button-response","3","118557","0.0-2.0-1.0","1067","44","post","5","afternoon","2026-04-08","2026-04-21","2026-04-25T21:00:51.323Z","Mozilla/5.0 (iPhone; CPU iPhone OS 18_7 like Mac OS X) AppleWebKit/605.1.15 (KHTML, like Gecko) Mobile/15E148","358","632","240","","1700","<div class=""prompt"" style=""font-size:24px; margin-bottom:20px;"">Which word describes you more?</div>","0","pairing","1","devoted","esteemed","PosPos","94","66","positive","positive","28","devoted","left","true"
"html-keyboard-response","4","119360","0.0-2.0-0.1","1067","44","post","5","afternoon","2026-04-08","2026-04-21","2026-04-25T21:00:51.323Z","Mozilla/5.0 (iPhone; CPU iPhone OS 18_7 like Mac OS X) AppleWebKit/605.1.15 (KHTML, like Gecko) Mobile/15E148","358","632","240","","null","<div style=""font-size:60px;"">+</div>","null","fixation","","","","","","","","","","","",""
"html-button-response","5","121000","0.0-2.0-1.1","1067","44","post","5","afternoon","2026-04-08","2026-04-21","2026-04-25T21:00:51.323Z","Mozilla/5.0 (iPhone; CPU iPhone OS 18_7 like Mac OS X) AppleWebKit/605.1.15 (KHTML, like Gecko) Mobile/15E148","358","632","240","","1637","<div class=""prompt"" style=""font-size:24px; margin-bottom:20px;"">Which word describes you more?</div>","0","pairing","2","patient","safe","PosPos","41","93","positive","positive","52","patient","left","true"
"html-keyboard-response","6","121805","0.0-2.0-0.2","1067","44","post","5","afternoon","2026-04-08","2026-04-21","2026-04-25T21:00:51.323Z","Mozilla/5.0 (iPhone; CPU iPhone OS 18_7 like Mac OS X) AppleWebKit/605.1.15 (KHTML, like Gecko) Mobile/15E148","358","632","240","","null","<div style=""font-size:60px;"">+</div>","null","fixation","","","","","","","","","","","",""
"html-button-response","7","122984","0.0-2.0-1.2","1067","44","post","5","afternoon","2026-04-08","2026-04-21","2026-04-25T21:00:51.323Z","Mozilla/5.0 (iPhone; CPU iPhone OS 18_7 like Mac OS X) AppleWebKit/605.1.15 (KHTML, like Gecko) Mobile/15E148","358","632","240","","1174","<div class=""prompt"" style=""font-size:24px; margin-bottom:20px;"">Which word describes you more?</div>","1","pairing","3","menace","irritating","NegNeg","70","56","negative","negative","14","irritating","right","true"
"html-keyboard-response","8","123787","0.0-2.0-0.3","1067","44","post","5","afternoon","2026-04-08","2026-04-21","2026-04-25T21:00:51.323Z","Mozilla/5.0 (iPhone; CPU iPhone OS 18_7 like Mac OS X) AppleWebKit/605.1.15 (KHTML, like Gecko) Mobile/15E148","358","632","240","","null","<div style=""font-size:60px;"">+</div>","null","fixation","","","","","","","","","","","",""
"html-button-response","9","125301","0.0-2.0-1.3","1067","44","post","5","afternoon","2026-04-08","2026-04-21","2026-04-25T21:00:51.323Z","Mozilla/5.0 (iPhone; CPU iPhone OS 18_7 like Mac OS X) AppleWebKit/605.1.15 (KHTML, like Gecko) Mobile/15E148","358","632","240","","1512","<div class=""prompt"" style=""font-size:24px; margin-bottom:20px;"">Which word describes you more?</div>","0","pairing","4","delight","wise","PosPos","78","46","positive","positive","32","delight","left","true"
"html-keyboard-response","10","126103","0.0-2.0-0.4","1067","44","post","5","afternoon","2026-04-08","2026-04-21","2026-04-25T21:00:51.323Z","Mozilla/5.0 (iPhone; CPU iPhone OS 18_7 like Mac OS X) AppleWebKit/605.1.15 (KHTML, like Gecko) Mobile/15E148","358","632","240","","null","<div style=""font-size:60px;"">+</div>","null","fixation","","","","","","","","","","","",""
"html-button-response","11","127850","0.0-2.0-1.4","1067","44","post","5","afternoon","2026-04-08","2026-04-21","2026-04-25T21:00:51.323Z","Mozilla/5.0 (iPhone; CPU iPhone OS 18_7 like Mac OS X) AppleWebKit/605.1.15 (KHTML, like Gecko) Mobile/15E148","358","632","240","","1745","<div class=""prompt"" style=""font-size:24px; margin-bottom:20px;"">Which word describes you more?</div>","1","pairing","5","insecure","vengeful","NegNeg","12","62","negative","negative","50","vengeful","right","true"
"html-keyboard-response","12","128653","0.0-2.0-0.5","1067","44","post","5","afternoon","2026-04-08","2026-04-21","2026-04-25T21:00:51.323Z","Mozilla/5.0 (iPhone; CPU iPhone OS 18_7 like Mac OS X) AppleWebKit/605.1.15 (KHTML, like Gecko) Mobile/15E148","358","632","240","","null","<div style=""font-size:60px;"">+</div>","null","fixation","","","","","","","","","","","",""
"html-button-response","13","130018","0.0-2.0-1.5","1067","44","post","5","afternoon","2026-04-08","2026-04-21","2026-04-25T21:00:51.323Z","Mozilla/5.0 (iPhone; CPU iPhone OS 18_7 like Mac OS X) AppleWebKit/605.1.15 (KHTML, like Gecko) Mobile/15E148","358","632","240","","1361","<div class=""prompt"" style=""font-size:24px; margin-bottom:20px;"">Which word describes you more?</div>","0","pairing","6","arrogant","defective","NegNeg","73","0","negative","negative","73","arrogant","left","true"
"html-keyboard-response","14","130820","0.0-2.0-0.6","1067","44","post","5","afternoon","2026-04-08","2026-04-21","2026-04-25T21:00:51.323Z","Mozilla/5.0 (iPhone; CPU iPhone OS 18_7 like Mac OS X) AppleWebKit/605.1.15 (KHTML, like Gecko) Mobile/15E148","358","632","240","","null","<div style=""font-size:60px;"">+</div>","null","fixation","","","","","","","","","","","",""
"html-button-response","15","132719","0.0-2.0-1.6","1067","44","post","5","afternoon","2026-04-08","2026-04-21","2026-04-25T21:00:51.323Z","Mozilla/5.0 (iPhone; CPU iPhone OS 18_7 like Mac OS X) AppleWebKit/605.1.15 (KHTML, like Gecko) Mobile/15E148","358","632","240","","1896","<div class=""prompt"" style=""font-size:24px; margin-bottom:20px;"">Which word describes you more?</div>","1","pairing","7","talented","enthusiastic","PosPos","64","88","positive","positive","24","enthusiastic","right","true"
"html-keyboard-response","16","133521","0.0-2.0-0.7","1067","44","post","5","afternoon","2026-04-08","2026-04-21","2026-04-25T21:00:51.323Z","Mozilla/5.0 (iPhone; CPU iPhone OS 18_7 like Mac OS X) AppleWebKit/605.1.15 (KHTML, like Gecko) Mobile/15E148","358","632","240","","null","<div style=""font-size:60px;"">+</div>","null","fixation","","","","","","","","","","","",""
"html-button-response","17","134518","0.0-2.0-1.7","1067","44","post","5","afternoon","2026-04-08","2026-04-21","2026-04-25T21:00:51.323Z","Mozilla/5.0 (iPhone; CPU iPhone OS 18_7 like Mac OS X) AppleWebKit/605.1.15 (KHTML, like Gecko) Mobile/15E148","358","632","240","","994","<div class=""prompt"" style=""font-size:24px; margin-bottom:20px;"">Which word describes you more?</div>","1","pairing","8","menace","admired","PosNeg","70","56","negative","positive","14","admired","right","true"
"html-keyboard-response","18","135321","0.0-2.0-0.8","1067","44","post","5","afternoon","2026-04-08","2026-04-21","2026-04-25T21:00:51.323Z","Mozilla/5.0 (iPhone; CPU iPhone OS 18_7 like Mac OS X) AppleWebKit/605.1.15 (KHTML, like Gecko) Mobile/15E148","358","632","240","","null","<div style=""font-size:60px;"">+</div>","null","fixation","","","","","","","","","","","",""
"html-button-response","19","136868","0.0-2.0-1.8","1067","44","post","5","afternoon","2026-04-08","2026-04-21","2026-04-25T21:00:51.323Z","Mozilla/5.0 (iPhone; CPU iPhone OS 18_7 like Mac OS X) AppleWebKit/605.1.15 (KHTML, like Gecko) Mobile/15E148","358","632","240","","1543","<div class=""prompt"" style=""font-size:24px; margin-bottom:20px;"">Which word describes you more?</div>","0","pairing","9","helper","loser","PosNeg","72","7","positive","negative","65","helper","left","true"
"html-keyboard-response","20","137674","0.0-2.0-0.9","1067","44","post","5","afternoon","2026-04-08","2026-04-21","2026-04-25T21:00:51.323Z","Mozilla/5.0 (iPhone; CPU iPhone OS 18_7 like Mac OS X) AppleWebKit/605.1.15 (KHTML, like Gecko) Mobile/15E148","358","632","240","","null","<div style=""font-size:60px;"">+</div>","null","fixation","","","","","","","","","","","",""
"html-button-response","21","139618","0.0-2.0-1.9","1067","44","post","5","afternoon","2026-04-08","2026-04-21","2026-04-25T21:00:51.323Z","Mozilla/5.0 (iPhone; CPU iPhone OS 18_7 like Mac OS X) AppleWebKit/605.1.15 (KHTML, like Gecko) Mobile/15E148","358","632","240","","1941","<div class=""prompt"" style=""font-size:24px; margin-bottom:20px;"">Which word describes you more?</div>","1","pairing","10","slob","irresponsible","NegNeg","13","46","negative","negative","33","irresponsible","right","true"
"html-keyboard-response","22","140421","0.0-2.0-0.10","1067","44","post","5","afternoon","2026-04-08","2026-04-21","2026-04-25T21:00:51.323Z","Mozilla/5.0 (iPhone; CPU iPhone OS 18_7 like Mac OS X) AppleWebKit/605.1.15 (KHTML, like Gecko) Mobile/15E148","358","632","240","","null","<div style=""font-size:60px;"">+</div>","null","fixation","","","","","","","","","","","",""
"html-button-response","23","141184","0.0-2.0-1.10","1067","44","post","5","afternoon","2026-04-08","2026-04-21","2026-04-25T21:00:51.323Z","Mozilla/5.0 (iPhone; CPU iPhone OS 18_7 like Mac OS X) AppleWebKit/605.1.15 (KHTML, like Gecko) Mobile/15E148","358","632","240","","761","<div class=""prompt"" style=""font-size:24px; margin-bottom:20px;"">Which word describes you more?</div>","0","pairing","11","pleased","wise","PosPos","88","46","positive","positive","42","pleased","left","true"
"html-keyboard-response","24","141987","0.0-2.0-0.11","1067","44","post","5","afternoon","2026-04-08","2026-04-21","2026-04-25T21:00:51.323Z","Mozilla/5.0 (iPhone; CPU iPhone OS 18_7 like Mac OS X) AppleWebKit/605.1.15 (KHTML, like Gecko) Mobile/15E148","358","632","240","","null","<div style=""font-size:60px;"">+</div>","null","fixation","","","","","","","","","","","",""
"html-button-response","25","142918","0.0-2.0-1.11","1067","44","post","5","afternoon","2026-04-08","2026-04-21","2026-04-25T21:00:51.323Z","Mozilla/5.0 (iPhone; CPU iPhone OS 18_7 like Mac OS X) AppleWebKit/605.1.15 (KHTML, like Gecko) Mobile/15E148","358","632","240","","928","<div class=""prompt"" style=""font-size:24px; margin-bottom:20px;"">Which word describes you more?</div>","1","pairing","12","defective","appealing","PosNeg","0","76","negative","positive","76","appealing","right","true"
"html-keyboard-response","26","143723","0.0-2.0-0.12","1067","44","post","5","afternoon","2026-04-08","2026-04-21","2026-04-25T21:00:51.323Z","Mozilla/5.0 (iPhone; CPU iPhone OS 18_7 like Mac OS X) AppleWebKit/605.1.15 (KHTML, like Gecko) Mobile/15E148","358","632","240","","null","<div style=""font-size:60px;"">+</div>","null","fixation","","","","","","","","","","","",""
"html-button-response","27","144602","0.0-2.0-1.12","1067","44","post","5","afternoon","2026-04-08","2026-04-21","2026-04-25T21:00:51.323Z","Mozilla/5.0 (iPhone; CPU iPhone OS 18_7 like Mac OS X) AppleWebKit/605.1.15 (KHTML, like Gecko) Mobile/15E148","358","632","240","","877","<div class=""prompt"" style=""font-size:24px; margin-bottom:20px;"">Which word describes you more?</div>","0","pairing","13","legendary","brave","PosPos","57","71","positive","positive","14","legendary","left","true"
"html-keyboard-response","28","145405","0.0-2.0-0.13","1067","44","post","5","afternoon","2026-04-08","2026-04-21","2026-04-25T21:00:51.323Z","Mozilla/5.0 (iPhone; CPU iPhone OS 18_7 like Mac OS X) AppleWebKit/605.1.15 (KHTML, like Gecko) Mobile/15E148","358","632","240","","null","<div style=""font-size:60px;"">+</div>","null","fixation","","","","","","","","","","","",""
"html-button-response","29","146369","0.0-2.0-1.13","1067","44","post","5","afternoon","2026-04-08","2026-04-21","2026-04-25T21:00:51.323Z","Mozilla/5.0 (iPhone; CPU iPhone OS 18_7 like Mac OS X) AppleWebKit/605.1.15 (KHTML, like Gecko) Mobile/15E148","358","632","240","","962","<div class=""prompt"" style=""font-size:24px; margin-bottom:20px;"">Which word describes you more?</div>","1","pairing","14","sadistic","admired","PosNeg","31","56","negative","positive","25","admired","right","true"
"html-keyboard-response","30","147172","0.0-2.0-0.14","1067","44","post","5","afternoon","2026-04-08","2026-04-21","2026-04-25T21:00:51.323Z","Mozilla/5.0 (iPhone; CPU iPhone OS 18_7 like Mac OS X) AppleWebKit/605.1.15 (KHTML, like Gecko) Mobile/15E148","358","632","240","","null","<div style=""font-size:60px;"">+</div>","null","fixation","","","","","","","","","","","",""
"html-button-response","31","148403","0.0-2.0-1.14","1067","44","post","5","afternoon","2026-04-08","2026-04-21","2026-04-25T21:00:51.323Z","Mozilla/5.0 (iPhone; CPU iPhone OS 18_7 like Mac OS X) AppleWebKit/605.1.15 (KHTML, like Gecko) Mobile/15E148","358","632","240","","1228","<div class=""prompt"" style=""font-size:24px; margin-bottom:20px;"">Which word describes you more?</div>","0","pairing","15","smart","uninvited","PosNeg","76","0","positive","negative","76","smart","left","true"
"html-keyboard-response","32","149205","0.0-2.0-0.15","1067","44","post","5","afternoon","2026-04-08","2026-04-21","2026-04-25T21:00:51.323Z","Mozilla/5.0 (iPhone; CPU iPhone OS 18_7 like Mac OS X) AppleWebKit/605.1.15 (KHTML, like Gecko) Mobile/15E148","358","632","240","","null","<div style=""font-size:60px;"">+</div>","null","fixation","","","","","","","","","","","",""
"html-button-response","33","150050","0.0-2.0-1.15","1067","44","post","5","afternoon","2026-04-08","2026-04-21","2026-04-25T21:00:51.323Z","Mozilla/5.0 (iPhone; CPU iPhone OS 18_7 like Mac OS X) AppleWebKit/605.1.15 (KHTML, like Gecko) Mobile/15E148","358","632","240","","844","<div class=""prompt"" style=""font-size:24px; margin-bottom:20px;"">Which word describes you more?</div>","0","pairing","16","virtuous","hater","PosNeg","51","60","positive","negative","9","virtuous","left","true"
"html-keyboard-response","34","150853","0.0-2.0-0.16","1067","44","post","5","afternoon","2026-04-08","2026-04-21","2026-04-25T21:00:51.323Z","Mozilla/5.0 (iPhone; CPU iPhone OS 18_7 like Mac OS X) AppleWebKit/605.1.15 (KHTML, like Gecko) Mobile/15E148","358","632","240","","null","<div style=""font-size:60px;"">+</div>","null","fixation","","","","","","","","","","","",""
"html-button-response","35","152236","0.0-2.0-1.16","1067","44","post","5","afternoon","2026-04-08","2026-04-21","2026-04-25T21:00:51.323Z","Mozilla/5.0 (iPhone; CPU iPhone OS 18_7 like Mac OS X) AppleWebKit/605.1.15 (KHTML, like Gecko) Mobile/15E148","358","632","240","","1381","<div class=""prompt"" style=""font-size:24px; margin-bottom:20px;"">Which word describes you more?</div>","0","pairing","17","learner","inadequate","PosNeg","100","9","positive","negative","91","learner","left","true"
"html-keyboard-response","36","153039","0.0-2.0-0.17","1067","44","post","5","afternoon","2026-04-08","2026-04-21","2026-04-25T21:00:51.323Z","Mozilla/5.0 (iPhone; CPU iPhone OS 18_7 like Mac OS X) AppleWebKit/605.1.15 (KHTML, like Gecko) Mobile/15E148","358","632","240","","null","<div style=""font-size:60px;"">+</div>","null","fixation","","","","","","","","","","","",""
"html-button-response","37","154320","0.0-2.0-1.17","1067","44","post","5","afternoon","2026-04-08","2026-04-21","2026-04-25T21:00:51.323Z","Mozilla/5.0 (iPhone; CPU iPhone OS 18_7 like Mac OS X) AppleWebKit/605.1.15 (KHTML, like Gecko) Mobile/15E148","358","632","240","","1277","<div class=""prompt"" style=""font-size:24px; margin-bottom:20px;"">Which word describes you more?</div>","1","pairing","18","lifeless","admired","PosNeg","2","56","negative","positive","54","admired","right","true"
"html-keyboard-response","38","155123","0.0-2.0-0.18","1067","44","post","5","afternoon","2026-04-08","2026-04-21","2026-04-25T21:00:51.323Z","Mozilla/5.0 (iPhone; CPU iPhone OS 18_7 like Mac OS X) AppleWebKit/605.1.15 (KHTML, like Gecko) Mobile/15E148","358","632","240","","null","<div style=""font-size:60px;"">+</div>","null","fixation","","","","","","","","","","","",""
"html-button-response","39","156220","0.0-2.0-1.18","1067","44","post","5","afternoon","2026-04-08","2026-04-21","2026-04-25T21:00:51.323Z","Mozilla/5.0 (iPhone; CPU iPhone OS 18_7 like Mac OS X) AppleWebKit/605.1.15 (KHTML, like Gecko) Mobile/15E148","358","632","240","","1094","<div class=""prompt"" style=""font-size:24px; margin-bottom:20px;"">Which word describes you more?</div>","1","pairing","19","distressed","cooperative","PosNeg","7","80","negative","positive","73","cooperative","right","true"
"html-keyboard-response","40","157023","0.0-2.0-0.19","1067","44","post","5","afternoon","2026-04-08","2026-04-21","2026-04-25T21:00:51.323Z","Mozilla/5.0 (iPhone; CPU iPhone OS 18_7 like Mac OS X) AppleWebKit/605.1.15 (KHTML, like Gecko) Mobile/15E148","358","632","240","","null","<div style=""font-size:60px;"">+</div>","null","fixation","","","","","","","","","","","",""
"html-button-response","41","157920","0.0-2.0-1.19","1067","44","post","5","afternoon","2026-04-08","2026-04-21","2026-04-25T21:00:51.323Z","Mozilla/5.0 (iPhone; CPU iPhone OS 18_7 like Mac OS X) AppleWebKit/605.1.15 (KHTML, like Gecko) Mobile/15E148","358","632","240","","896","<div class=""prompt"" style=""font-size:24px; margin-bottom:20px;"">Which word describes you more?</div>","0","pairing","20","alluring","untrustworthy","PosNeg","58","25","positive","negative","33","alluring","left","true"
"html-keyboard-response","42","158723","0.0-2.0-0.20","1067","44","post","5","afternoon","2026-04-08","2026-04-21","2026-04-25T21:00:51.323Z","Mozilla/5.0 (iPhone; CPU iPhone OS 18_7 like Mac OS X) AppleWebKit/605.1.15 (KHTML, like Gecko) Mobile/15E148","358","632","240","","null","<div style=""font-size:60px;"">+</div>","null","fixation","","","","","","","","","","","",""
"html-button-response","43","159737","0.0-2.0-1.20","1067","44","post","5","afternoon","2026-04-08","2026-04-21","2026-04-25T21:00:51.323Z","Mozilla/5.0 (iPhone; CPU iPhone OS 18_7 like Mac OS X) AppleWebKit/605.1.15 (KHTML, like Gecko) Mobile/15E148","358","632","240","","1011","<div class=""prompt"" style=""font-size:24px; margin-bottom:20px;"">Which word describes you more?</div>","0","pairing","21","successful","distressed","PosNeg","76","7","positive","negative","69","successful","left","true"
"html-keyboard-response","44","160539","0.0-2.0-0.21","1067","44","post","5","afternoon","2026-04-08","2026-04-21","2026-04-25T21:00:51.323Z","Mozilla/5.0 (iPhone; CPU iPhone OS 18_7 like Mac OS X) AppleWebKit/605.1.15 (KHTML, like Gecko) Mobile/15E148","358","632","240","","null","<div style=""font-size:60px;"">+</div>","null","fixation","","","","","","","","","","","",""
"html-button-response","45","162120","0.0-2.0-1.21","1067","44","post","5","afternoon","2026-04-08","2026-04-21","2026-04-25T21:00:51.323Z","Mozilla/5.0 (iPhone; CPU iPhone OS 18_7 like Mac OS X) AppleWebKit/605.1.15 (KHTML, like Gecko) Mobile/15E148","358","632","240","","1579","<div class=""prompt"" style=""font-size:24px; margin-bottom:20px;"">Which word describes you more?</div>","0","pairing","22","helpless","shameful","NegNeg","69","12","negative","negative","57","helpless","left","true"
"html-keyboard-response","46","162923","0.0-2.0-0.22","1067","44","post","5","afternoon","2026-04-08","2026-04-21","2026-04-25T21:00:51.323Z","Mozilla/5.0 (iPhone; CPU iPhone OS 18_7 like Mac OS X) AppleWebKit/605.1.15 (KHTML, like Gecko) Mobile/15E148","358","632","240","","null","<div style=""font-size:60px;"">+</div>","null","fixation","","","","","","","","","","","",""
"html-button-response","47","163854","0.0-2.0-1.22","1067","44","post","5","afternoon","2026-04-08","2026-04-21","2026-04-25T21:00:51.323Z","Mozilla/5.0 (iPhone; CPU iPhone OS 18_7 like Mac OS X) AppleWebKit/605.1.15 (KHTML, like Gecko) Mobile/15E148","358","632","240","","928","<div class=""prompt"" style=""font-size:24px; margin-bottom:20px;"">Which word describes you more?</div>","1","pairing","23","outcast","arrogant","NegNeg","1","73","negative","negative","72","arrogant","right","true"
"html-keyboard-response","48","164656","0.0-2.0-0.23","1067","44","post","5","afternoon","2026-04-08","2026-04-21","2026-04-25T21:00:51.323Z","Mozilla/5.0 (iPhone; CPU iPhone OS 18_7 like Mac OS X) AppleWebKit/605.1.15 (KHTML, like Gecko) Mobile/15E148","358","632","240","","null","<div style=""font-size:60px;"">+</div>","null","fixation","","","","","","","","","","","",""
"html-button-response","49","165487","0.0-2.0-1.23","1067","44","post","5","afternoon","2026-04-08","2026-04-21","2026-04-25T21:00:51.323Z","Mozilla/5.0 (iPhone; CPU iPhone OS 18_7 like Mac OS X) AppleWebKit/605.1.15 (KHTML, like Gecko) Mobile/15E148","358","632","240","","830","<div class=""prompt"" style=""font-size:24px; margin-bottom:20px;"">Which word describes you more?</div>","0","pairing","24","virtuous","dull","PosNeg","51","13","positive","negative","38","virtuous","left","true"
"instructions","50","166154","0.0-3.0","1067","44","post","5","afternoon","2026-04-08","2026-04-21","2026-04-25T21:00:51.323Z","Mozilla/5.0 (iPhone; CPU iPhone OS 18_7 like Mac OS X) AppleWebKit/605.1.15 (KHTML, like Gecko) Mobile/15E148","358","632","240","[{""page_index"":0,""viewing_time"":663}]","663","","","","","","","","","","","","","","",""
