"trial_type","trial_index","time_elapsed","internal_node_id","PUNS_ID","session_number","session_phase","session_day","session_slot","ema_start_date","ema_post_start_date","experiment_start","browser","screen_width","screen_height","timezone_offset","view_history","rt","stimulus","response","which_experiment_phase","trial_number","left_word","right_word","valence","left_base_rating","right_base_rating","left_valence","right_valence","abs_diff","participant_response","chosen_side","valid_response"
"pavlovia","0","1227","0.0-0.0","1015","6","pre","2","evening","2026-04-07","2026-04-19","2026-04-09T03:31:52.988Z","Mozilla/5.0 (Linux; Android 14; Pixel 4a (5G) Build/UP1A.231105.001.B2; wv) AppleWebKit/537.36 (KHTML, like Gecko) Version/4.0 Chrome/146.0.7680.177 Mobile Safari/537.36","379","674","240","","","","","","","","","","","","","","","","",""
"instructions","1","4553","0.0-1.0","1015","6","pre","2","evening","2026-04-07","2026-04-19","2026-04-09T03:31:52.988Z","Mozilla/5.0 (Linux; Android 14; Pixel 4a (5G) Build/UP1A.231105.001.B2; wv) AppleWebKit/537.36 (KHTML, like Gecko) Version/4.0 Chrome/146.0.7680.177 Mobile Safari/537.36","379","674","240","[{""page_index"":0,""viewing_time"":678},{""page_index"":1,""viewing_time"":738},{""page_index"":2,""viewing_time"":946},{""page_index"":3,""viewing_time"":962}]","3324","","","","","","","","","","","","","","",""
"html-keyboard-response","2","5357","0.0-2.0-0.0","1015","6","pre","2","evening","2026-04-07","2026-04-19","2026-04-09T03:31:52.988Z","Mozilla/5.0 (Linux; Android 14; Pixel 4a (5G) Build/UP1A.231105.001.B2; wv) AppleWebKit/537.36 (KHTML, like Gecko) Version/4.0 Chrome/146.0.7680.177 Mobile Safari/537.36","379","674","240","","null","<div style=""font-size:60px;"">+</div>","null","fixation","","","","","","","","","","","",""
"html-button-response","3","6976","0.0-2.0-1.0","1015","6","pre","2","evening","2026-04-07","2026-04-19","2026-04-09T03:31:52.988Z","Mozilla/5.0 (Linux; Android 14; Pixel 4a (5G) Build/UP1A.231105.001.B2; wv) AppleWebKit/537.36 (KHTML, like Gecko) Version/4.0 Chrome/146.0.7680.177 Mobile Safari/537.36","379","674","240","","1614","<div class=""prompt"" style=""font-size:24px; margin-bottom:20px;"">Which word describes you more?</div>","1","pairing","1","irritating","sensible","PosNeg","49","100","negative","positive","51","sensible","right","true"
"html-keyboard-response","4","7780","0.0-2.0-0.1","1015","6","pre","2","evening","2026-04-07","2026-04-19","2026-04-09T03:31:52.988Z","Mozilla/5.0 (Linux; Android 14; Pixel 4a (5G) Build/UP1A.231105.001.B2; wv) AppleWebKit/537.36 (KHTML, like Gecko) Version/4.0 Chrome/146.0.7680.177 Mobile Safari/537.36","379","674","240","","null","<div style=""font-size:60px;"">+</div>","null","fixation","","","","","","","","","","","",""
"html-button-response","5","9156","0.0-2.0-1.1","1015","6","pre","2","evening","2026-04-07","2026-04-19","2026-04-09T03:31:52.988Z","Mozilla/5.0 (Linux; Android 14; Pixel 4a (5G) Build/UP1A.231105.001.B2; wv) AppleWebKit/537.36 (KHTML, like Gecko) Version/4.0 Chrome/146.0.7680.177 Mobile Safari/537.36","379","674","240","","1371","<div class=""prompt"" style=""font-size:24px; margin-bottom:20px;"">Which word describes you more?</div>","1","pairing","2","alone","alluring","PosNeg","100","23","negative","positive","77","alluring","right","true"
"html-keyboard-response","6","9960","0.0-2.0-0.2","1015","6","pre","2","evening","2026-04-07","2026-04-19","2026-04-09T03:31:52.988Z","Mozilla/5.0 (Linux; Android 14; Pixel 4a (5G) Build/UP1A.231105.001.B2; wv) AppleWebKit/537.36 (KHTML, like Gecko) Version/4.0 Chrome/146.0.7680.177 Mobile Safari/537.36","379","674","240","","null","<div style=""font-size:60px;"">+</div>","null","fixation","","","","","","","","","","","",""
"html-button-response","7","11903","0.0-2.0-1.2","1015","6","pre","2","evening","2026-04-07","2026-04-19","2026-04-09T03:31:52.988Z","Mozilla/5.0 (Linux; Android 14; Pixel 4a (5G) Build/UP1A.231105.001.B2; wv) AppleWebKit/537.36 (KHTML, like Gecko) Version/4.0 Chrome/146.0.7680.177 Mobile Safari/537.36","379","674","240","","1937","<div class=""prompt"" style=""font-size:24px; margin-bottom:20px;"">Which word describes you more?</div>","1","pairing","3","lifeless","outcast","NegNeg","0","91","negative","negative","91","outcast","right","true"
"html-keyboard-response","8","12706","0.0-2.0-0.3","1015","6","pre","2","evening","2026-04-07","2026-04-19","2026-04-09T03:31:52.988Z","Mozilla/5.0 (Linux; Android 14; Pixel 4a (5G) Build/UP1A.231105.001.B2; wv) AppleWebKit/537.36 (KHTML, like Gecko) Version/4.0 Chrome/146.0.7680.177 Mobile Safari/537.36","379","674","240","","null","<div style=""font-size:60px;"">+</div>","null","fixation","","","","","","","","","","","",""
"html-button-response","9","14516","0.0-2.0-1.3","1015","6","pre","2","evening","2026-04-07","2026-04-19","2026-04-09T03:31:52.988Z","Mozilla/5.0 (Linux; Android 14; Pixel 4a (5G) Build/UP1A.231105.001.B2; wv) AppleWebKit/537.36 (KHTML, like Gecko) Version/4.0 Chrome/146.0.7680.177 Mobile Safari/537.36","379","674","240","","1805","<div class=""prompt"" style=""font-size:24px; margin-bottom:20px;"">Which word describes you more?</div>","1","pairing","4","easygoing","expert","PosPos","49","100","positive","positive","51","expert","right","true"
"html-keyboard-response","10","15320","0.0-2.0-0.4","1015","6","pre","2","evening","2026-04-07","2026-04-19","2026-04-09T03:31:52.988Z","Mozilla/5.0 (Linux; Android 14; Pixel 4a (5G) Build/UP1A.231105.001.B2; wv) AppleWebKit/537.36 (KHTML, like Gecko) Version/4.0 Chrome/146.0.7680.177 Mobile Safari/537.36","379","674","240","","null","<div style=""font-size:60px;"">+</div>","null","fixation","","","","","","","","","","","",""
"html-button-response","11","17324","0.0-2.0-1.4","1015","6","pre","2","evening","2026-04-07","2026-04-19","2026-04-09T03:31:52.988Z","Mozilla/5.0 (Linux; Android 14; Pixel 4a (5G) Build/UP1A.231105.001.B2; wv) AppleWebKit/537.36 (KHTML, like Gecko) Version/4.0 Chrome/146.0.7680.177 Mobile Safari/537.36","379","674","240","","2000","<div class=""prompt"" style=""font-size:24px; margin-bottom:20px;"">Which word describes you more?</div>","0","pairing","5","satisfied","worthless","PosNeg","49","0","positive","negative","49","satisfied","left","true"
"html-keyboard-response","12","18125","0.0-2.0-0.5","1015","6","pre","2","evening","2026-04-07","2026-04-19","2026-04-09T03:31:52.988Z","Mozilla/5.0 (Linux; Android 14; Pixel 4a (5G) Build/UP1A.231105.001.B2; wv) AppleWebKit/537.36 (KHTML, like Gecko) Version/4.0 Chrome/146.0.7680.177 Mobile Safari/537.36","379","674","240","","null","<div style=""font-size:60px;"">+</div>","null","fixation","","","","","","","","","","","",""
"html-button-response","13","20333","0.0-2.0-1.5","1015","6","pre","2","evening","2026-04-07","2026-04-19","2026-04-09T03:31:52.988Z","Mozilla/5.0 (Linux; Android 14; Pixel 4a (5G) Build/UP1A.231105.001.B2; wv) AppleWebKit/537.36 (KHTML, like Gecko) Version/4.0 Chrome/146.0.7680.177 Mobile Safari/537.36","379","674","240","","2203","<div class=""prompt"" style=""font-size:24px; margin-bottom:20px;"">Which word describes you more?</div>","0","pairing","6","goodwilled","playful","PosPos","100","68","positive","positive","32","goodwilled","left","true"
"html-keyboard-response","14","21135","0.0-2.0-0.6","1015","6","pre","2","evening","2026-04-07","2026-04-19","2026-04-09T03:31:52.988Z","Mozilla/5.0 (Linux; Android 14; Pixel 4a (5G) Build/UP1A.231105.001.B2; wv) AppleWebKit/537.36 (KHTML, like Gecko) Version/4.0 Chrome/146.0.7680.177 Mobile Safari/537.36","379","674","240","","null","<div style=""font-size:60px;"">+</div>","null","fixation","","","","","","","","","","","",""
"html-button-response","15","23124","0.0-2.0-1.6","1015","6","pre","2","evening","2026-04-07","2026-04-19","2026-04-09T03:31:52.988Z","Mozilla/5.0 (Linux; Android 14; Pixel 4a (5G) Build/UP1A.231105.001.B2; wv) AppleWebKit/537.36 (KHTML, like Gecko) Version/4.0 Chrome/146.0.7680.177 Mobile Safari/537.36","379","674","240","","1985","<div class=""prompt"" style=""font-size:24px; margin-bottom:20px;"">Which word describes you more?</div>","0","pairing","7","hesitant","carefree","PosNeg","50","0","negative","positive","50","hesitant","left","true"
"html-keyboard-response","16","23926","0.0-2.0-0.7","1015","6","pre","2","evening","2026-04-07","2026-04-19","2026-04-09T03:31:52.988Z","Mozilla/5.0 (Linux; Android 14; Pixel 4a (5G) Build/UP1A.231105.001.B2; wv) AppleWebKit/537.36 (KHTML, like Gecko) Version/4.0 Chrome/146.0.7680.177 Mobile Safari/537.36","379","674","240","","null","<div style=""font-size:60px;"">+</div>","null","fixation","","","","","","","","","","","",""
"html-button-response","17","25394","0.0-2.0-1.7","1015","6","pre","2","evening","2026-04-07","2026-04-19","2026-04-09T03:31:52.988Z","Mozilla/5.0 (Linux; Android 14; Pixel 4a (5G) Build/UP1A.231105.001.B2; wv) AppleWebKit/537.36 (KHTML, like Gecko) Version/4.0 Chrome/146.0.7680.177 Mobile Safari/537.36","379","674","240","","1466","<div class=""prompt"" style=""font-size:24px; margin-bottom:20px;"">Which word describes you more?</div>","1","pairing","8","sadistic","knowledgeable","PosNeg","0","100","negative","positive","100","knowledgeable","right","true"
"html-keyboard-response","18","26197","0.0-2.0-0.8","1015","6","pre","2","evening","2026-04-07","2026-04-19","2026-04-09T03:31:52.988Z","Mozilla/5.0 (Linux; Android 14; Pixel 4a (5G) Build/UP1A.231105.001.B2; wv) AppleWebKit/537.36 (KHTML, like Gecko) Version/4.0 Chrome/146.0.7680.177 Mobile Safari/537.36","379","674","240","","null","<div style=""font-size:60px;"">+</div>","null","fixation","","","","","","","","","","","",""
"html-button-response","19","28414","0.0-2.0-1.8","1015","6","pre","2","evening","2026-04-07","2026-04-19","2026-04-09T03:31:52.988Z","Mozilla/5.0 (Linux; Android 14; Pixel 4a (5G) Build/UP1A.231105.001.B2; wv) AppleWebKit/537.36 (KHTML, like Gecko) Version/4.0 Chrome/146.0.7680.177 Mobile Safari/537.36","379","674","240","","2213","<div class=""prompt"" style=""font-size:24px; margin-bottom:20px;"">Which word describes you more?</div>","1","pairing","9","appealing","valued","PosPos","100","0","positive","positive","100","valued","right","true"
"html-keyboard-response","20","29216","0.0-2.0-0.9","1015","6","pre","2","evening","2026-04-07","2026-04-19","2026-04-09T03:31:52.988Z","Mozilla/5.0 (Linux; Android 14; Pixel 4a (5G) Build/UP1A.231105.001.B2; wv) AppleWebKit/537.36 (KHTML, like Gecko) Version/4.0 Chrome/146.0.7680.177 Mobile Safari/537.36","379","674","240","","null","<div style=""font-size:60px;"">+</div>","null","fixation","","","","","","","","","","","",""
"html-button-response","21","31635","0.0-2.0-1.9","1015","6","pre","2","evening","2026-04-07","2026-04-19","2026-04-09T03:31:52.988Z","Mozilla/5.0 (Linux; Android 14; Pixel 4a (5G) Build/UP1A.231105.001.B2; wv) AppleWebKit/537.36 (KHTML, like Gecko) Version/4.0 Chrome/146.0.7680.177 Mobile Safari/537.36","379","674","240","","2413","<div class=""prompt"" style=""font-size:24px; margin-bottom:20px;"">Which word describes you more?</div>","0","pairing","10","carefree","problematic","PosNeg","0","48","positive","negative","48","carefree","left","true"
"html-keyboard-response","22","32437","0.0-2.0-0.10","1015","6","pre","2","evening","2026-04-07","2026-04-19","2026-04-09T03:31:52.988Z","Mozilla/5.0 (Linux; Android 14; Pixel 4a (5G) Build/UP1A.231105.001.B2; wv) AppleWebKit/537.36 (KHTML, like Gecko) Version/4.0 Chrome/146.0.7680.177 Mobile Safari/537.36","379","674","240","","null","<div style=""font-size:60px;"">+</div>","null","fixation","","","","","","","","","","","",""
"html-button-response","23","33740","0.0-2.0-1.10","1015","6","pre","2","evening","2026-04-07","2026-04-19","2026-04-09T03:31:52.988Z","Mozilla/5.0 (Linux; Android 14; Pixel 4a (5G) Build/UP1A.231105.001.B2; wv) AppleWebKit/537.36 (KHTML, like Gecko) Version/4.0 Chrome/146.0.7680.177 Mobile Safari/537.36","379","674","240","","1300","<div class=""prompt"" style=""font-size:24px; margin-bottom:20px;"">Which word describes you more?</div>","1","pairing","11","unwanted","spontaneous","PosNeg","81","51","negative","positive","30","spontaneous","right","true"
"html-keyboard-response","24","34542","0.0-2.0-0.11","1015","6","pre","2","evening","2026-04-07","2026-04-19","2026-04-09T03:31:52.988Z","Mozilla/5.0 (Linux; Android 14; Pixel 4a (5G) Build/UP1A.231105.001.B2; wv) AppleWebKit/537.36 (KHTML, like Gecko) Version/4.0 Chrome/146.0.7680.177 Mobile Safari/537.36","379","674","240","","null","<div style=""font-size:60px;"">+</div>","null","fixation","","","","","","","","","","","",""
"html-button-response","25","35697","0.0-2.0-1.11","1015","6","pre","2","evening","2026-04-07","2026-04-19","2026-04-09T03:31:52.988Z","Mozilla/5.0 (Linux; Android 14; Pixel 4a (5G) Build/UP1A.231105.001.B2; wv) AppleWebKit/537.36 (KHTML, like Gecko) Version/4.0 Chrome/146.0.7680.177 Mobile Safari/537.36","379","674","240","","1152","<div class=""prompt"" style=""font-size:24px; margin-bottom:20px;"">Which word describes you more?</div>","1","pairing","12","unwanted","goodwilled","PosNeg","81","100","negative","positive","19","goodwilled","right","true"
"html-keyboard-response","26","36499","0.0-2.0-0.12","1015","6","pre","2","evening","2026-04-07","2026-04-19","2026-04-09T03:31:52.988Z","Mozilla/5.0 (Linux; Android 14; Pixel 4a (5G) Build/UP1A.231105.001.B2; wv) AppleWebKit/537.36 (KHTML, like Gecko) Version/4.0 Chrome/146.0.7680.177 Mobile Safari/537.36","379","674","240","","null","<div style=""font-size:60px;"">+</div>","null","fixation","","","","","","","","","","","",""
"html-button-response","27","38083","0.0-2.0-1.12","1015","6","pre","2","evening","2026-04-07","2026-04-19","2026-04-09T03:31:52.988Z","Mozilla/5.0 (Linux; Android 14; Pixel 4a (5G) Build/UP1A.231105.001.B2; wv) AppleWebKit/537.36 (KHTML, like Gecko) Version/4.0 Chrome/146.0.7680.177 Mobile Safari/537.36","379","674","240","","1581","<div class=""prompt"" style=""font-size:24px; margin-bottom:20px;"">Which word describes you more?</div>","0","pairing","13","alluring","boring","PosNeg","23","100","positive","negative","77","alluring","left","true"
"html-keyboard-response","28","38885","0.0-2.0-0.13","1015","6","pre","2","evening","2026-04-07","2026-04-19","2026-04-09T03:31:52.988Z","Mozilla/5.0 (Linux; Android 14; Pixel 4a (5G) Build/UP1A.231105.001.B2; wv) AppleWebKit/537.36 (KHTML, like Gecko) Version/4.0 Chrome/146.0.7680.177 Mobile Safari/537.36","379","674","240","","null","<div style=""font-size:60px;"">+</div>","null","fixation","","","","","","","","","","","",""
"html-button-response","29","40295","0.0-2.0-1.13","1015","6","pre","2","evening","2026-04-07","2026-04-19","2026-04-09T03:31:52.988Z","Mozilla/5.0 (Linux; Android 14; Pixel 4a (5G) Build/UP1A.231105.001.B2; wv) AppleWebKit/537.36 (KHTML, like Gecko) Version/4.0 Chrome/146.0.7680.177 Mobile Safari/537.36","379","674","240","","1407","<div class=""prompt"" style=""font-size:24px; margin-bottom:20px;"">Which word describes you more?</div>","0","pairing","14","irritating","worthless","NegNeg","49","0","negative","negative","49","irritating","left","true"
"html-keyboard-response","30","41099","0.0-2.0-0.14","1015","6","pre","2","evening","2026-04-07","2026-04-19","2026-04-09T03:31:52.988Z","Mozilla/5.0 (Linux; Android 14; Pixel 4a (5G) Build/UP1A.231105.001.B2; wv) AppleWebKit/537.36 (KHTML, like Gecko) Version/4.0 Chrome/146.0.7680.177 Mobile Safari/537.36","379","674","240","","null","<div style=""font-size:60px;"">+</div>","null","fixation","","","","","","","","","","","",""
"html-button-response","31","42353","0.0-2.0-1.14","1015","6","pre","2","evening","2026-04-07","2026-04-19","2026-04-09T03:31:52.988Z","Mozilla/5.0 (Linux; Android 14; Pixel 4a (5G) Build/UP1A.231105.001.B2; wv) AppleWebKit/537.36 (KHTML, like Gecko) Version/4.0 Chrome/146.0.7680.177 Mobile Safari/537.36","379","674","240","","1251","<div class=""prompt"" style=""font-size:24px; margin-bottom:20px;"">Which word describes you more?</div>","1","pairing","15","distressed","anxious","NegNeg","0","15","negative","negative","15","anxious","right","true"
"html-keyboard-response","32","43155","0.0-2.0-0.15","1015","6","pre","2","evening","2026-04-07","2026-04-19","2026-04-09T03:31:52.988Z","Mozilla/5.0 (Linux; Android 14; Pixel 4a (5G) Build/UP1A.231105.001.B2; wv) AppleWebKit/537.36 (KHTML, like Gecko) Version/4.0 Chrome/146.0.7680.177 Mobile Safari/537.36","379","674","240","","null","<div style=""font-size:60px;"">+</div>","null","fixation","","","","","","","","","","","",""
"html-button-response","33","44372","0.0-2.0-1.15","1015","6","pre","2","evening","2026-04-07","2026-04-19","2026-04-09T03:31:52.988Z","Mozilla/5.0 (Linux; Android 14; Pixel 4a (5G) Build/UP1A.231105.001.B2; wv) AppleWebKit/537.36 (KHTML, like Gecko) Version/4.0 Chrome/146.0.7680.177 Mobile Safari/537.36","379","674","240","","1213","<div class=""prompt"" style=""font-size:24px; margin-bottom:20px;"">Which word describes you more?</div>","1","pairing","16","adorable","adventurous","PosPos","0","100","positive","positive","100","adventurous","right","true"
"html-keyboard-response","34","45175","0.0-2.0-0.16","1015","6","pre","2","evening","2026-04-07","2026-04-19","2026-04-09T03:31:52.988Z","Mozilla/5.0 (Linux; Android 14; Pixel 4a (5G) Build/UP1A.231105.001.B2; wv) AppleWebKit/537.36 (KHTML, like Gecko) Version/4.0 Chrome/146.0.7680.177 Mobile Safari/537.36","379","674","240","","null","<div style=""font-size:60px;"">+</div>","null","fixation","","","","","","","","","","","",""
"html-button-response","35","46437","0.0-2.0-1.16","1015","6","pre","2","evening","2026-04-07","2026-04-19","2026-04-09T03:31:52.988Z","Mozilla/5.0 (Linux; Android 14; Pixel 4a (5G) Build/UP1A.231105.001.B2; wv) AppleWebKit/537.36 (KHTML, like Gecko) Version/4.0 Chrome/146.0.7680.177 Mobile Safari/537.36","379","674","240","","1260","<div class=""prompt"" style=""font-size:24px; margin-bottom:20px;"">Which word describes you more?</div>","0","pairing","17","eloquent","rude","PosNeg","100","0","positive","negative","100","eloquent","left","true"
"html-keyboard-response","36","47238","0.0-2.0-0.17","1015","6","pre","2","evening","2026-04-07","2026-04-19","2026-04-09T03:31:52.988Z","Mozilla/5.0 (Linux; Android 14; Pixel 4a (5G) Build/UP1A.231105.001.B2; wv) AppleWebKit/537.36 (KHTML, like Gecko) Version/4.0 Chrome/146.0.7680.177 Mobile Safari/537.36","379","674","240","","null","<div style=""font-size:60px;"">+</div>","null","fixation","","","","","","","","","","","",""
"html-button-response","37","49091","0.0-2.0-1.17","1015","6","pre","2","evening","2026-04-07","2026-04-19","2026-04-09T03:31:52.988Z","Mozilla/5.0 (Linux; Android 14; Pixel 4a (5G) Build/UP1A.231105.001.B2; wv) AppleWebKit/537.36 (KHTML, like Gecko) Version/4.0 Chrome/146.0.7680.177 Mobile Safari/537.36","379","674","240","","1850","<div class=""prompt"" style=""font-size:24px; margin-bottom:20px;"">Which word describes you more?</div>","1","pairing","18","pleased","graceful","PosPos","78","88","positive","positive","10","graceful","right","true"
"html-keyboard-response","38","49897","0.0-2.0-0.18","1015","6","pre","2","evening","2026-04-07","2026-04-19","2026-04-09T03:31:52.988Z","Mozilla/5.0 (Linux; Android 14; Pixel 4a (5G) Build/UP1A.231105.001.B2; wv) AppleWebKit/537.36 (KHTML, like Gecko) Version/4.0 Chrome/146.0.7680.177 Mobile Safari/537.36","379","674","240","","null","<div style=""font-size:60px;"">+</div>","null","fixation","","","","","","","","","","","",""
"html-button-response","39","51985","0.0-2.0-1.18","1015","6","pre","2","evening","2026-04-07","2026-04-19","2026-04-09T03:31:52.988Z","Mozilla/5.0 (Linux; Android 14; Pixel 4a (5G) Build/UP1A.231105.001.B2; wv) AppleWebKit/537.36 (KHTML, like Gecko) Version/4.0 Chrome/146.0.7680.177 Mobile Safari/537.36","379","674","240","","2072","<div class=""prompt"" style=""font-size:24px; margin-bottom:20px;"">Which word describes you more?</div>","0","pairing","19","helper","outcast","PosNeg","100","91","positive","negative","9","helper","left","true"
"html-keyboard-response","40","52794","0.0-2.0-0.19","1015","6","pre","2","evening","2026-04-07","2026-04-19","2026-04-09T03:31:52.988Z","Mozilla/5.0 (Linux; Android 14; Pixel 4a (5G) Build/UP1A.231105.001.B2; wv) AppleWebKit/537.36 (KHTML, like Gecko) Version/4.0 Chrome/146.0.7680.177 Mobile Safari/537.36","379","674","240","","null","<div style=""font-size:60px;"">+</div>","null","fixation","","","","","","","","","","","",""
"html-button-response","41","55303","0.0-2.0-1.19","1015","6","pre","2","evening","2026-04-07","2026-04-19","2026-04-09T03:31:52.988Z","Mozilla/5.0 (Linux; Android 14; Pixel 4a (5G) Build/UP1A.231105.001.B2; wv) AppleWebKit/537.36 (KHTML, like Gecko) Version/4.0 Chrome/146.0.7680.177 Mobile Safari/537.36","379","674","240","","2504","<div class=""prompt"" style=""font-size:24px; margin-bottom:20px;"">Which word describes you more?</div>","0","pairing","20","uninvited","alone","NegNeg","50","100","negative","negative","50","uninvited","left","true"
"html-keyboard-response","42","56104","0.0-2.0-0.20","1015","6","pre","2","evening","2026-04-07","2026-04-19","2026-04-09T03:31:52.988Z","Mozilla/5.0 (Linux; Android 14; Pixel 4a (5G) Build/UP1A.231105.001.B2; wv) AppleWebKit/537.36 (KHTML, like Gecko) Version/4.0 Chrome/146.0.7680.177 Mobile Safari/537.36","379","674","240","","null","<div style=""font-size:60px;"">+</div>","null","fixation","","","","","","","","","","","",""
"html-button-response","43","59373","0.0-2.0-1.20","1015","6","pre","2","evening","2026-04-07","2026-04-19","2026-04-09T03:31:52.988Z","Mozilla/5.0 (Linux; Android 14; Pixel 4a (5G) Build/UP1A.231105.001.B2; wv) AppleWebKit/537.36 (KHTML, like Gecko) Version/4.0 Chrome/146.0.7680.177 Mobile Safari/537.36","379","674","240","","3267","<div class=""prompt"" style=""font-size:24px; margin-bottom:20px;"">Which word describes you more?</div>","0","pairing","21","outcast","hater","NegNeg","91","0","negative","negative","91","outcast","left","true"
"html-keyboard-response","44","60175","0.0-2.0-0.21","1015","6","pre","2","evening","2026-04-07","2026-04-19","2026-04-09T03:31:52.988Z","Mozilla/5.0 (Linux; Android 14; Pixel 4a (5G) Build/UP1A.231105.001.B2; wv) AppleWebKit/537.36 (KHTML, like Gecko) Version/4.0 Chrome/146.0.7680.177 Mobile Safari/537.36","379","674","240","","null","<div style=""font-size:60px;"">+</div>","null","fixation","","","","","","","","","","","",""
"html-button-response","45","62863","0.0-2.0-1.21","1015","6","pre","2","evening","2026-04-07","2026-04-19","2026-04-09T03:31:52.988Z","Mozilla/5.0 (Linux; Android 14; Pixel 4a (5G) Build/UP1A.231105.001.B2; wv) AppleWebKit/537.36 (KHTML, like Gecko) Version/4.0 Chrome/146.0.7680.177 Mobile Safari/537.36","379","674","240","","2685","<div class=""prompt"" style=""font-size:24px; margin-bottom:20px;"">Which word describes you more?</div>","1","pairing","22","blissful","unlucky","PosNeg","44","64","positive","negative","20","unlucky","right","true"
"html-keyboard-response","46","63665","0.0-2.0-0.22","1015","6","pre","2","evening","2026-04-07","2026-04-19","2026-04-09T03:31:52.988Z","Mozilla/5.0 (Linux; Android 14; Pixel 4a (5G) Build/UP1A.231105.001.B2; wv) AppleWebKit/537.36 (KHTML, like Gecko) Version/4.0 Chrome/146.0.7680.177 Mobile Safari/537.36","379","674","240","","null","<div style=""font-size:60px;"">+</div>","null","fixation","","","","","","","","","","","",""
"html-button-response","47","66235","0.0-2.0-1.22","1015","6","pre","2","evening","2026-04-07","2026-04-19","2026-04-09T03:31:52.988Z","Mozilla/5.0 (Linux; Android 14; Pixel 4a (5G) Build/UP1A.231105.001.B2; wv) AppleWebKit/537.36 (KHTML, like Gecko) Version/4.0 Chrome/146.0.7680.177 Mobile Safari/537.36","379","674","240","","2567","<div class=""prompt"" style=""font-size:24px; margin-bottom:20px;"">Which word describes you more?</div>","1","pairing","23","resourceful","spontaneous","PosPos","100","51","positive","positive","49","spontaneous","right","true"
"html-keyboard-response","48","67037","0.0-2.0-0.23","1015","6","pre","2","evening","2026-04-07","2026-04-19","2026-04-09T03:31:52.988Z","Mozilla/5.0 (Linux; Android 14; Pixel 4a (5G) Build/UP1A.231105.001.B2; wv) AppleWebKit/537.36 (KHTML, like Gecko) Version/4.0 Chrome/146.0.7680.177 Mobile Safari/537.36","379","674","240","","null","<div style=""font-size:60px;"">+</div>","null","fixation","","","","","","","","","","","",""
"html-button-response","49","68676","0.0-2.0-1.23","1015","6","pre","2","evening","2026-04-07","2026-04-19","2026-04-09T03:31:52.988Z","Mozilla/5.0 (Linux; Android 14; Pixel 4a (5G) Build/UP1A.231105.001.B2; wv) AppleWebKit/537.36 (KHTML, like Gecko) Version/4.0 Chrome/146.0.7680.177 Mobile Safari/537.36","379","674","240","","1637","<div class=""prompt"" style=""font-size:24px; margin-bottom:20px;"">Which word describes you more?</div>","0","pairing","24","anxious","disastrous","NegNeg","15","0","negative","negative","15","anxious","left","true"
"instructions","50","69975","0.0-3.0","1015","6","pre","2","evening","2026-04-07","2026-04-19","2026-04-09T03:31:52.988Z","Mozilla/5.0 (Linux; Android 14; Pixel 4a (5G) Build/UP1A.231105.001.B2; wv) AppleWebKit/537.36 (KHTML, like Gecko) Version/4.0 Chrome/146.0.7680.177 Mobile Safari/537.36","379","674","240","[{""page_index"":0,""viewing_time"":1287}]","1290","","","","","","","","","","","","","","",""
