"trial_type","trial_index","time_elapsed","internal_node_id","PUNS_ID","session_number","session_phase","session_day","session_slot","ema_start_date","ema_post_start_date","experiment_start","browser","screen_width","screen_height","timezone_offset","view_history","rt","stimulus","response","which_experiment_phase","trial_number","left_word","right_word","valence","left_base_rating","right_base_rating","left_valence","right_valence","abs_diff","participant_response","chosen_side","valid_response"
"pavlovia","0","1576","0.0-0.0","1068","21","pre","7","evening","2026-06-09","2026-06-23","2026-06-15T23:25:15.693Z","Mozilla/5.0 (iPhone; CPU iPhone OS 18_6_2 like Mac OS X) AppleWebKit/605.1.15 (KHTML, like Gecko) Mobile/15E148","370","647","240","","","","","","","","","","","","","","","","",""
"instructions","1","4573","0.0-1.0","1068","21","pre","7","evening","2026-06-09","2026-06-23","2026-06-15T23:25:15.693Z","Mozilla/5.0 (iPhone; CPU iPhone OS 18_6_2 like Mac OS X) AppleWebKit/605.1.15 (KHTML, like Gecko) Mobile/15E148","370","647","240","[{""page_index"":0,""viewing_time"":894},{""page_index"":1,""viewing_time"":563},{""page_index"":2,""viewing_time"":853},{""page_index"":3,""viewing_time"":681}]","2993","","","","","","","","","","","","","","",""
"html-keyboard-response","2","5377","0.0-2.0-0.0","1068","21","pre","7","evening","2026-06-09","2026-06-23","2026-06-15T23:25:15.693Z","Mozilla/5.0 (iPhone; CPU iPhone OS 18_6_2 like Mac OS X) AppleWebKit/605.1.15 (KHTML, like Gecko) Mobile/15E148","370","647","240","","null","<div style=""font-size:60px;"">+</div>","null","fixation","","","","","","","","","","","",""
"html-button-response","3","6382","0.0-2.0-1.0","1068","21","pre","7","evening","2026-06-09","2026-06-23","2026-06-15T23:25:15.693Z","Mozilla/5.0 (iPhone; CPU iPhone OS 18_6_2 like Mac OS X) AppleWebKit/605.1.15 (KHTML, like Gecko) Mobile/15E148","370","647","240","","1000","<div class=""prompt"" style=""font-size:24px; margin-bottom:20px;"">Which word describes you more?</div>","0","pairing","1","legendary","traitor","PosNeg","87","0","positive","negative","87","legendary","left","true"
"html-keyboard-response","4","7184","0.0-2.0-0.1","1068","21","pre","7","evening","2026-06-09","2026-06-23","2026-06-15T23:25:15.693Z","Mozilla/5.0 (iPhone; CPU iPhone OS 18_6_2 like Mac OS X) AppleWebKit/605.1.15 (KHTML, like Gecko) Mobile/15E148","370","647","240","","null","<div style=""font-size:60px;"">+</div>","null","fixation","","","","","","","","","","","",""
"html-button-response","5","7907","0.0-2.0-1.1","1068","21","pre","7","evening","2026-06-09","2026-06-23","2026-06-15T23:25:15.693Z","Mozilla/5.0 (iPhone; CPU iPhone OS 18_6_2 like Mac OS X) AppleWebKit/605.1.15 (KHTML, like Gecko) Mobile/15E148","370","647","240","","719","<div class=""prompt"" style=""font-size:24px; margin-bottom:20px;"">Which word describes you more?</div>","0","pairing","2","playful","easygoing","PosPos","82","100","positive","positive","18","playful","left","true"
"html-keyboard-response","6","8709","0.0-2.0-0.2","1068","21","pre","7","evening","2026-06-09","2026-06-23","2026-06-15T23:25:15.693Z","Mozilla/5.0 (iPhone; CPU iPhone OS 18_6_2 like Mac OS X) AppleWebKit/605.1.15 (KHTML, like Gecko) Mobile/15E148","370","647","240","","null","<div style=""font-size:60px;"">+</div>","null","fixation","","","","","","","","","","","",""
"html-button-response","7","9388","0.0-2.0-1.2","1068","21","pre","7","evening","2026-06-09","2026-06-23","2026-06-15T23:25:15.693Z","Mozilla/5.0 (iPhone; CPU iPhone OS 18_6_2 like Mac OS X) AppleWebKit/605.1.15 (KHTML, like Gecko) Mobile/15E148","370","647","240","","678","<div class=""prompt"" style=""font-size:24px; margin-bottom:20px;"">Which word describes you more?</div>","0","pairing","3","spirited","bitter","PosNeg","100","0","positive","negative","100","spirited","left","true"
"html-keyboard-response","8","10190","0.0-2.0-0.3","1068","21","pre","7","evening","2026-06-09","2026-06-23","2026-06-15T23:25:15.693Z","Mozilla/5.0 (iPhone; CPU iPhone OS 18_6_2 like Mac OS X) AppleWebKit/605.1.15 (KHTML, like Gecko) Mobile/15E148","370","647","240","","null","<div style=""font-size:60px;"">+</div>","null","fixation","","","","","","","","","","","",""
"html-button-response","9","12255","0.0-2.0-1.3","1068","21","pre","7","evening","2026-06-09","2026-06-23","2026-06-15T23:25:15.693Z","Mozilla/5.0 (iPhone; CPU iPhone OS 18_6_2 like Mac OS X) AppleWebKit/605.1.15 (KHTML, like Gecko) Mobile/15E148","370","647","240","","2063","<div class=""prompt"" style=""font-size:24px; margin-bottom:20px;"">Which word describes you more?</div>","1","pairing","4","disloyal","bitter","NegNeg","0","0","negative","negative","0","bitter","right","true"
"html-keyboard-response","10","13057","0.0-2.0-0.4","1068","21","pre","7","evening","2026-06-09","2026-06-23","2026-06-15T23:25:15.693Z","Mozilla/5.0 (iPhone; CPU iPhone OS 18_6_2 like Mac OS X) AppleWebKit/605.1.15 (KHTML, like Gecko) Mobile/15E148","370","647","240","","null","<div style=""font-size:60px;"">+</div>","null","fixation","","","","","","","","","","","",""
"html-button-response","11","13773","0.0-2.0-1.4","1068","21","pre","7","evening","2026-06-09","2026-06-23","2026-06-15T23:25:15.693Z","Mozilla/5.0 (iPhone; CPU iPhone OS 18_6_2 like Mac OS X) AppleWebKit/605.1.15 (KHTML, like Gecko) Mobile/15E148","370","647","240","","715","<div class=""prompt"" style=""font-size:24px; margin-bottom:20px;"">Which word describes you more?</div>","0","pairing","5","visionary","unique","PosPos","88","84","positive","positive","4","visionary","left","true"
"html-keyboard-response","12","14576","0.0-2.0-0.5","1068","21","pre","7","evening","2026-06-09","2026-06-23","2026-06-15T23:25:15.693Z","Mozilla/5.0 (iPhone; CPU iPhone OS 18_6_2 like Mac OS X) AppleWebKit/605.1.15 (KHTML, like Gecko) Mobile/15E148","370","647","240","","null","<div style=""font-size:60px;"">+</div>","null","fixation","","","","","","","","","","","",""
"html-button-response","13","15490","0.0-2.0-1.5","1068","21","pre","7","evening","2026-06-09","2026-06-23","2026-06-15T23:25:15.693Z","Mozilla/5.0 (iPhone; CPU iPhone OS 18_6_2 like Mac OS X) AppleWebKit/605.1.15 (KHTML, like Gecko) Mobile/15E148","370","647","240","","913","<div class=""prompt"" style=""font-size:24px; margin-bottom:20px;"">Which word describes you more?</div>","1","pairing","6","disastrous","resourceful","PosNeg","0","85","negative","positive","85","resourceful","right","true"
"html-keyboard-response","14","16292","0.0-2.0-0.6","1068","21","pre","7","evening","2026-06-09","2026-06-23","2026-06-15T23:25:15.693Z","Mozilla/5.0 (iPhone; CPU iPhone OS 18_6_2 like Mac OS X) AppleWebKit/605.1.15 (KHTML, like Gecko) Mobile/15E148","370","647","240","","null","<div style=""font-size:60px;"">+</div>","null","fixation","","","","","","","","","","","",""
"html-button-response","15","17407","0.0-2.0-1.6","1068","21","pre","7","evening","2026-06-09","2026-06-23","2026-06-15T23:25:15.693Z","Mozilla/5.0 (iPhone; CPU iPhone OS 18_6_2 like Mac OS X) AppleWebKit/605.1.15 (KHTML, like Gecko) Mobile/15E148","370","647","240","","1113","<div class=""prompt"" style=""font-size:24px; margin-bottom:20px;"">Which word describes you more?</div>","1","pairing","7","violent","unpleasant","NegNeg","1","0","negative","negative","1","unpleasant","right","true"
"html-keyboard-response","16","18209","0.0-2.0-0.7","1068","21","pre","7","evening","2026-06-09","2026-06-23","2026-06-15T23:25:15.693Z","Mozilla/5.0 (iPhone; CPU iPhone OS 18_6_2 like Mac OS X) AppleWebKit/605.1.15 (KHTML, like Gecko) Mobile/15E148","370","647","240","","null","<div style=""font-size:60px;"">+</div>","null","fixation","","","","","","","","","","","",""
"html-button-response","17","19273","0.0-2.0-1.7","1068","21","pre","7","evening","2026-06-09","2026-06-23","2026-06-15T23:25:15.693Z","Mozilla/5.0 (iPhone; CPU iPhone OS 18_6_2 like Mac OS X) AppleWebKit/605.1.15 (KHTML, like Gecko) Mobile/15E148","370","647","240","","1061","<div class=""prompt"" style=""font-size:24px; margin-bottom:20px;"">Which word describes you more?</div>","0","pairing","8","selfish","arrogant","NegNeg","42","6","negative","negative","36","selfish","left","true"
"html-keyboard-response","18","20076","0.0-2.0-0.8","1068","21","pre","7","evening","2026-06-09","2026-06-23","2026-06-15T23:25:15.693Z","Mozilla/5.0 (iPhone; CPU iPhone OS 18_6_2 like Mac OS X) AppleWebKit/605.1.15 (KHTML, like Gecko) Mobile/15E148","370","647","240","","null","<div style=""font-size:60px;"">+</div>","null","fixation","","","","","","","","","","","",""
"html-button-response","19","20841","0.0-2.0-1.8","1068","21","pre","7","evening","2026-06-09","2026-06-23","2026-06-15T23:25:15.693Z","Mozilla/5.0 (iPhone; CPU iPhone OS 18_6_2 like Mac OS X) AppleWebKit/605.1.15 (KHTML, like Gecko) Mobile/15E148","370","647","240","","764","<div class=""prompt"" style=""font-size:24px; margin-bottom:20px;"">Which word describes you more?</div>","0","pairing","9","carefree","humorous","PosPos","50","90","positive","positive","40","carefree","left","true"
"html-keyboard-response","20","21643","0.0-2.0-0.9","1068","21","pre","7","evening","2026-06-09","2026-06-23","2026-06-15T23:25:15.693Z","Mozilla/5.0 (iPhone; CPU iPhone OS 18_6_2 like Mac OS X) AppleWebKit/605.1.15 (KHTML, like Gecko) Mobile/15E148","370","647","240","","null","<div style=""font-size:60px;"">+</div>","null","fixation","","","","","","","","","","","",""
"html-button-response","21","22250","0.0-2.0-1.9","1068","21","pre","7","evening","2026-06-09","2026-06-23","2026-06-15T23:25:15.693Z","Mozilla/5.0 (iPhone; CPU iPhone OS 18_6_2 like Mac OS X) AppleWebKit/605.1.15 (KHTML, like Gecko) Mobile/15E148","370","647","240","","604","<div class=""prompt"" style=""font-size:24px; margin-bottom:20px;"">Which word describes you more?</div>","0","pairing","10","attractive","disgrace","PosNeg","81","0","positive","negative","81","attractive","left","true"
"html-keyboard-response","22","23052","0.0-2.0-0.10","1068","21","pre","7","evening","2026-06-09","2026-06-23","2026-06-15T23:25:15.693Z","Mozilla/5.0 (iPhone; CPU iPhone OS 18_6_2 like Mac OS X) AppleWebKit/605.1.15 (KHTML, like Gecko) Mobile/15E148","370","647","240","","null","<div style=""font-size:60px;"">+</div>","null","fixation","","","","","","","","","","","",""
"html-button-response","23","23698","0.0-2.0-1.10","1068","21","pre","7","evening","2026-06-09","2026-06-23","2026-06-15T23:25:15.693Z","Mozilla/5.0 (iPhone; CPU iPhone OS 18_6_2 like Mac OS X) AppleWebKit/605.1.15 (KHTML, like Gecko) Mobile/15E148","370","647","240","","645","<div class=""prompt"" style=""font-size:24px; margin-bottom:20px;"">Which word describes you more?</div>","0","pairing","11","entertaining","unlucky","PosNeg","81","48","positive","negative","33","entertaining","left","true"
"html-keyboard-response","24","24501","0.0-2.0-0.11","1068","21","pre","7","evening","2026-06-09","2026-06-23","2026-06-15T23:25:15.693Z","Mozilla/5.0 (iPhone; CPU iPhone OS 18_6_2 like Mac OS X) AppleWebKit/605.1.15 (KHTML, like Gecko) Mobile/15E148","370","647","240","","null","<div style=""font-size:60px;"">+</div>","null","fixation","","","","","","","","","","","",""
"html-button-response","25","25783","0.0-2.0-1.11","1068","21","pre","7","evening","2026-06-09","2026-06-23","2026-06-15T23:25:15.693Z","Mozilla/5.0 (iPhone; CPU iPhone OS 18_6_2 like Mac OS X) AppleWebKit/605.1.15 (KHTML, like Gecko) Mobile/15E148","370","647","240","","1281","<div class=""prompt"" style=""font-size:24px; margin-bottom:20px;"">Which word describes you more?</div>","0","pairing","12","witty","worthless","PosNeg","73","0","positive","negative","73","witty","left","true"
"html-keyboard-response","26","26585","0.0-2.0-0.12","1068","21","pre","7","evening","2026-06-09","2026-06-23","2026-06-15T23:25:15.693Z","Mozilla/5.0 (iPhone; CPU iPhone OS 18_6_2 like Mac OS X) AppleWebKit/605.1.15 (KHTML, like Gecko) Mobile/15E148","370","647","240","","null","<div style=""font-size:60px;"">+</div>","null","fixation","","","","","","","","","","","",""
"html-button-response","27","27467","0.0-2.0-1.12","1068","21","pre","7","evening","2026-06-09","2026-06-23","2026-06-15T23:25:15.693Z","Mozilla/5.0 (iPhone; CPU iPhone OS 18_6_2 like Mac OS X) AppleWebKit/605.1.15 (KHTML, like Gecko) Mobile/15E148","370","647","240","","880","<div class=""prompt"" style=""font-size:24px; margin-bottom:20px;"">Which word describes you more?</div>","0","pairing","13","unlucky","tolerant","PosNeg","48","35","negative","positive","13","unlucky","left","true"
"html-keyboard-response","28","28269","0.0-2.0-0.13","1068","21","pre","7","evening","2026-06-09","2026-06-23","2026-06-15T23:25:15.693Z","Mozilla/5.0 (iPhone; CPU iPhone OS 18_6_2 like Mac OS X) AppleWebKit/605.1.15 (KHTML, like Gecko) Mobile/15E148","370","647","240","","null","<div style=""font-size:60px;"">+</div>","null","fixation","","","","","","","","","","","",""
"html-button-response","29","29025","0.0-2.0-1.13","1068","21","pre","7","evening","2026-06-09","2026-06-23","2026-06-15T23:25:15.693Z","Mozilla/5.0 (iPhone; CPU iPhone OS 18_6_2 like Mac OS X) AppleWebKit/605.1.15 (KHTML, like Gecko) Mobile/15E148","370","647","240","","754","<div class=""prompt"" style=""font-size:24px; margin-bottom:20px;"">Which word describes you more?</div>","0","pairing","14","unlucky","merciful","PosNeg","48","78","negative","positive","30","unlucky","left","true"
"html-keyboard-response","30","29828","0.0-2.0-0.14","1068","21","pre","7","evening","2026-06-09","2026-06-23","2026-06-15T23:25:15.693Z","Mozilla/5.0 (iPhone; CPU iPhone OS 18_6_2 like Mac OS X) AppleWebKit/605.1.15 (KHTML, like Gecko) Mobile/15E148","370","647","240","","null","<div style=""font-size:60px;"">+</div>","null","fixation","","","","","","","","","","","",""
"html-button-response","31","31343","0.0-2.0-1.14","1068","21","pre","7","evening","2026-06-09","2026-06-23","2026-06-15T23:25:15.693Z","Mozilla/5.0 (iPhone; CPU iPhone OS 18_6_2 like Mac OS X) AppleWebKit/605.1.15 (KHTML, like Gecko) Mobile/15E148","370","647","240","","1512","<div class=""prompt"" style=""font-size:24px; margin-bottom:20px;"">Which word describes you more?</div>","1","pairing","15","traitor","bitter","NegNeg","0","0","negative","negative","0","bitter","right","true"
"html-keyboard-response","32","32146","0.0-2.0-0.15","1068","21","pre","7","evening","2026-06-09","2026-06-23","2026-06-15T23:25:15.693Z","Mozilla/5.0 (iPhone; CPU iPhone OS 18_6_2 like Mac OS X) AppleWebKit/605.1.15 (KHTML, like Gecko) Mobile/15E148","370","647","240","","null","<div style=""font-size:60px;"">+</div>","null","fixation","","","","","","","","","","","",""
"html-button-response","33","32826","0.0-2.0-1.15","1068","21","pre","7","evening","2026-06-09","2026-06-23","2026-06-15T23:25:15.693Z","Mozilla/5.0 (iPhone; CPU iPhone OS 18_6_2 like Mac OS X) AppleWebKit/605.1.15 (KHTML, like Gecko) Mobile/15E148","370","647","240","","678","<div class=""prompt"" style=""font-size:24px; margin-bottom:20px;"">Which word describes you more?</div>","0","pairing","16","cooperative","flawless","PosPos","93","82","positive","positive","11","cooperative","left","true"
"html-keyboard-response","34","33629","0.0-2.0-0.16","1068","21","pre","7","evening","2026-06-09","2026-06-23","2026-06-15T23:25:15.693Z","Mozilla/5.0 (iPhone; CPU iPhone OS 18_6_2 like Mac OS X) AppleWebKit/605.1.15 (KHTML, like Gecko) Mobile/15E148","370","647","240","","null","<div style=""font-size:60px;"">+</div>","null","fixation","","","","","","","","","","","",""
"html-button-response","35","34401","0.0-2.0-1.16","1068","21","pre","7","evening","2026-06-09","2026-06-23","2026-06-15T23:25:15.693Z","Mozilla/5.0 (iPhone; CPU iPhone OS 18_6_2 like Mac OS X) AppleWebKit/605.1.15 (KHTML, like Gecko) Mobile/15E148","370","647","240","","770","<div class=""prompt"" style=""font-size:24px; margin-bottom:20px;"">Which word describes you more?</div>","0","pairing","17","entertaining","burden","PosNeg","81","1","positive","negative","80","entertaining","left","true"
"html-keyboard-response","36","35204","0.0-2.0-0.17","1068","21","pre","7","evening","2026-06-09","2026-06-23","2026-06-15T23:25:15.693Z","Mozilla/5.0 (iPhone; CPU iPhone OS 18_6_2 like Mac OS X) AppleWebKit/605.1.15 (KHTML, like Gecko) Mobile/15E148","370","647","240","","null","<div style=""font-size:60px;"">+</div>","null","fixation","","","","","","","","","","","",""
"html-button-response","37","37177","0.0-2.0-1.17","1068","21","pre","7","evening","2026-06-09","2026-06-23","2026-06-15T23:25:15.693Z","Mozilla/5.0 (iPhone; CPU iPhone OS 18_6_2 like Mac OS X) AppleWebKit/605.1.15 (KHTML, like Gecko) Mobile/15E148","370","647","240","","1970","<div class=""prompt"" style=""font-size:24px; margin-bottom:20px;"">Which word describes you more?</div>","1","pairing","18","miserable","virtuous","PosNeg","0","77","negative","positive","77","virtuous","right","true"
"html-keyboard-response","38","37979","0.0-2.0-0.18","1068","21","pre","7","evening","2026-06-09","2026-06-23","2026-06-15T23:25:15.693Z","Mozilla/5.0 (iPhone; CPU iPhone OS 18_6_2 like Mac OS X) AppleWebKit/605.1.15 (KHTML, like Gecko) Mobile/15E148","370","647","240","","null","<div style=""font-size:60px;"">+</div>","null","fixation","","","","","","","","","","","",""
"html-button-response","39","38968","0.0-2.0-1.18","1068","21","pre","7","evening","2026-06-09","2026-06-23","2026-06-15T23:25:15.693Z","Mozilla/5.0 (iPhone; CPU iPhone OS 18_6_2 like Mac OS X) AppleWebKit/605.1.15 (KHTML, like Gecko) Mobile/15E148","370","647","240","","987","<div class=""prompt"" style=""font-size:24px; margin-bottom:20px;"">Which word describes you more?</div>","1","pairing","19","hater","selfish","NegNeg","0","42","negative","negative","42","selfish","right","true"
"html-keyboard-response","40","39770","0.0-2.0-0.19","1068","21","pre","7","evening","2026-06-09","2026-06-23","2026-06-15T23:25:15.693Z","Mozilla/5.0 (iPhone; CPU iPhone OS 18_6_2 like Mac OS X) AppleWebKit/605.1.15 (KHTML, like Gecko) Mobile/15E148","370","647","240","","null","<div style=""font-size:60px;"">+</div>","null","fixation","","","","","","","","","","","",""
"html-button-response","41","40786","0.0-2.0-1.19","1068","21","pre","7","evening","2026-06-09","2026-06-23","2026-06-15T23:25:15.693Z","Mozilla/5.0 (iPhone; CPU iPhone OS 18_6_2 like Mac OS X) AppleWebKit/605.1.15 (KHTML, like Gecko) Mobile/15E148","370","647","240","","1014","<div class=""prompt"" style=""font-size:24px; margin-bottom:20px;"">Which word describes you more?</div>","1","pairing","20","toxic","idealistic","PosNeg","0","61","negative","positive","61","idealistic","right","true"
"html-keyboard-response","42","41588","0.0-2.0-0.20","1068","21","pre","7","evening","2026-06-09","2026-06-23","2026-06-15T23:25:15.693Z","Mozilla/5.0 (iPhone; CPU iPhone OS 18_6_2 like Mac OS X) AppleWebKit/605.1.15 (KHTML, like Gecko) Mobile/15E148","370","647","240","","null","<div style=""font-size:60px;"">+</div>","null","fixation","","","","","","","","","","","",""
"html-button-response","43","42294","0.0-2.0-1.20","1068","21","pre","7","evening","2026-06-09","2026-06-23","2026-06-15T23:25:15.693Z","Mozilla/5.0 (iPhone; CPU iPhone OS 18_6_2 like Mac OS X) AppleWebKit/605.1.15 (KHTML, like Gecko) Mobile/15E148","370","647","240","","704","<div class=""prompt"" style=""font-size:24px; margin-bottom:20px;"">Which word describes you more?</div>","0","pairing","21","graceful","selfish","PosNeg","87","42","positive","negative","45","graceful","left","true"
"html-keyboard-response","44","43096","0.0-2.0-0.21","1068","21","pre","7","evening","2026-06-09","2026-06-23","2026-06-15T23:25:15.693Z","Mozilla/5.0 (iPhone; CPU iPhone OS 18_6_2 like Mac OS X) AppleWebKit/605.1.15 (KHTML, like Gecko) Mobile/15E148","370","647","240","","null","<div style=""font-size:60px;"">+</div>","null","fixation","","","","","","","","","","","",""
"html-button-response","45","44353","0.0-2.0-1.21","1068","21","pre","7","evening","2026-06-09","2026-06-23","2026-06-15T23:25:15.693Z","Mozilla/5.0 (iPhone; CPU iPhone OS 18_6_2 like Mac OS X) AppleWebKit/605.1.15 (KHTML, like Gecko) Mobile/15E148","370","647","240","","1255","<div class=""prompt"" style=""font-size:24px; margin-bottom:20px;"">Which word describes you more?</div>","1","pairing","22","menace","slob","NegNeg","0","3","negative","negative","3","slob","right","true"
"html-keyboard-response","46","45155","0.0-2.0-0.22","1068","21","pre","7","evening","2026-06-09","2026-06-23","2026-06-15T23:25:15.693Z","Mozilla/5.0 (iPhone; CPU iPhone OS 18_6_2 like Mac OS X) AppleWebKit/605.1.15 (KHTML, like Gecko) Mobile/15E148","370","647","240","","null","<div style=""font-size:60px;"">+</div>","null","fixation","","","","","","","","","","","",""
"html-button-response","47","45953","0.0-2.0-1.22","1068","21","pre","7","evening","2026-06-09","2026-06-23","2026-06-15T23:25:15.693Z","Mozilla/5.0 (iPhone; CPU iPhone OS 18_6_2 like Mac OS X) AppleWebKit/605.1.15 (KHTML, like Gecko) Mobile/15E148","370","647","240","","796","<div class=""prompt"" style=""font-size:24px; margin-bottom:20px;"">Which word describes you more?</div>","0","pairing","23","committed","devoted","PosPos","100","98","positive","positive","2","committed","left","true"
"html-keyboard-response","48","46755","0.0-2.0-0.23","1068","21","pre","7","evening","2026-06-09","2026-06-23","2026-06-15T23:25:15.693Z","Mozilla/5.0 (iPhone; CPU iPhone OS 18_6_2 like Mac OS X) AppleWebKit/605.1.15 (KHTML, like Gecko) Mobile/15E148","370","647","240","","null","<div style=""font-size:60px;"">+</div>","null","fixation","","","","","","","","","","","",""
"html-button-response","49","47886","0.0-2.0-1.23","1068","21","pre","7","evening","2026-06-09","2026-06-23","2026-06-15T23:25:15.693Z","Mozilla/5.0 (iPhone; CPU iPhone OS 18_6_2 like Mac OS X) AppleWebKit/605.1.15 (KHTML, like Gecko) Mobile/15E148","370","647","240","","1130","<div class=""prompt"" style=""font-size:24px; margin-bottom:20px;"">Which word describes you more?</div>","0","pairing","24","graceful","carefree","PosPos","87","50","positive","positive","37","graceful","left","true"
"instructions","50","48720","0.0-3.0","1068","21","pre","7","evening","2026-06-09","2026-06-23","2026-06-15T23:25:15.693Z","Mozilla/5.0 (iPhone; CPU iPhone OS 18_6_2 like Mac OS X) AppleWebKit/605.1.15 (KHTML, like Gecko) Mobile/15E148","370","647","240","[{""page_index"":0,""viewing_time"":831}]","832","","","","","","","","","","","","","","",""
