"trial_type","trial_index","time_elapsed","internal_node_id","PUNS_ID","session_number","session_phase","session_day","session_slot","ema_start_date","ema_post_start_date","experiment_start","browser","screen_width","screen_height","timezone_offset","view_history","rt","stimulus","response","which_experiment_phase","trial_number","left_word","right_word","valence","left_base_rating","right_base_rating","left_valence","right_valence","abs_diff","participant_response","chosen_side","valid_response"
"pavlovia","0","2851","0.0-0.0","1045","22","pre","8","morning","2026-03-19","2026-03-31","2026-03-26T18:09:06.635Z","Mozilla/5.0 (Linux; Android 16; Pixel 10 Pro XL Build/BD3A.251105.010.E1; wv) AppleWebKit/537.36 (KHTML, like Gecko) Version/4.0 Chrome/146.0.7680.120 Mobile Safari/537.36","416","765","420","","","","","","","","","","","","","","","","",""
"instructions","1","6883","0.0-1.0","1045","22","pre","8","morning","2026-03-19","2026-03-31","2026-03-26T18:09:06.635Z","Mozilla/5.0 (Linux; Android 16; Pixel 10 Pro XL Build/BD3A.251105.010.E1; wv) AppleWebKit/537.36 (KHTML, like Gecko) Version/4.0 Chrome/146.0.7680.120 Mobile Safari/537.36","416","765","420","[{""page_index"":0,""viewing_time"":1888},{""page_index"":1,""viewing_time"":686},{""page_index"":2,""viewing_time"":667},{""page_index"":3,""viewing_time"":785}]","4027","","","","","","","","","","","","","","",""
"html-keyboard-response","2","7690","0.0-2.0-0.0","1045","22","pre","8","morning","2026-03-19","2026-03-31","2026-03-26T18:09:06.635Z","Mozilla/5.0 (Linux; Android 16; Pixel 10 Pro XL Build/BD3A.251105.010.E1; wv) AppleWebKit/537.36 (KHTML, like Gecko) Version/4.0 Chrome/146.0.7680.120 Mobile Safari/537.36","416","765","420","","null","<div style=""font-size:60px;"">+</div>","null","fixation","","","","","","","","","","","",""
"html-button-response","3","10798","0.0-2.0-1.0","1045","22","pre","8","morning","2026-03-19","2026-03-31","2026-03-26T18:09:06.635Z","Mozilla/5.0 (Linux; Android 16; Pixel 10 Pro XL Build/BD3A.251105.010.E1; wv) AppleWebKit/537.36 (KHTML, like Gecko) Version/4.0 Chrome/146.0.7680.120 Mobile Safari/537.36","416","765","420","","3102","<div class=""prompt"" style=""font-size:24px; margin-bottom:20px;"">Which word describes you more?</div>","0","pairing","1","insecure","hateful","NegNeg","81","11","negative","negative","70","insecure","left","true"
"html-keyboard-response","4","11613","0.0-2.0-0.1","1045","22","pre","8","morning","2026-03-19","2026-03-31","2026-03-26T18:09:06.635Z","Mozilla/5.0 (Linux; Android 16; Pixel 10 Pro XL Build/BD3A.251105.010.E1; wv) AppleWebKit/537.36 (KHTML, like Gecko) Version/4.0 Chrome/146.0.7680.120 Mobile Safari/537.36","416","765","420","","null","<div style=""font-size:60px;"">+</div>","null","fixation","","","","","","","","","","","",""
"html-button-response","5","12982","0.0-2.0-1.1","1045","22","pre","8","morning","2026-03-19","2026-03-31","2026-03-26T18:09:06.635Z","Mozilla/5.0 (Linux; Android 16; Pixel 10 Pro XL Build/BD3A.251105.010.E1; wv) AppleWebKit/537.36 (KHTML, like Gecko) Version/4.0 Chrome/146.0.7680.120 Mobile Safari/537.36","416","765","420","","1355","<div class=""prompt"" style=""font-size:24px; margin-bottom:20px;"">Which word describes you more?</div>","1","pairing","2","vermin","patient","PosNeg","0","31","negative","positive","31","patient","right","true"
"html-keyboard-response","6","13787","0.0-2.0-0.2","1045","22","pre","8","morning","2026-03-19","2026-03-31","2026-03-26T18:09:06.635Z","Mozilla/5.0 (Linux; Android 16; Pixel 10 Pro XL Build/BD3A.251105.010.E1; wv) AppleWebKit/537.36 (KHTML, like Gecko) Version/4.0 Chrome/146.0.7680.120 Mobile Safari/537.36","416","765","420","","null","<div style=""font-size:60px;"">+</div>","null","fixation","","","","","","","","","","","",""
"html-button-response","7","15205","0.0-2.0-1.2","1045","22","pre","8","morning","2026-03-19","2026-03-31","2026-03-26T18:09:06.635Z","Mozilla/5.0 (Linux; Android 16; Pixel 10 Pro XL Build/BD3A.251105.010.E1; wv) AppleWebKit/537.36 (KHTML, like Gecko) Version/4.0 Chrome/146.0.7680.120 Mobile Safari/537.36","416","765","420","","1414","<div class=""prompt"" style=""font-size:24px; margin-bottom:20px;"">Which word describes you more?</div>","1","pairing","3","hateful","hesitant","NegNeg","11","81","negative","negative","70","hesitant","right","true"
"html-keyboard-response","8","16015","0.0-2.0-0.3","1045","22","pre","8","morning","2026-03-19","2026-03-31","2026-03-26T18:09:06.635Z","Mozilla/5.0 (Linux; Android 16; Pixel 10 Pro XL Build/BD3A.251105.010.E1; wv) AppleWebKit/537.36 (KHTML, like Gecko) Version/4.0 Chrome/146.0.7680.120 Mobile Safari/537.36","416","765","420","","null","<div style=""font-size:60px;"">+</div>","null","fixation","","","","","","","","","","","",""
"html-button-response","9","17806","0.0-2.0-1.3","1045","22","pre","8","morning","2026-03-19","2026-03-31","2026-03-26T18:09:06.635Z","Mozilla/5.0 (Linux; Android 16; Pixel 10 Pro XL Build/BD3A.251105.010.E1; wv) AppleWebKit/537.36 (KHTML, like Gecko) Version/4.0 Chrome/146.0.7680.120 Mobile Safari/537.36","416","765","420","","1788","<div class=""prompt"" style=""font-size:24px; margin-bottom:20px;"">Which word describes you more?</div>","0","pairing","4","satisfied","esteemed","PosPos","16","74","positive","positive","58","satisfied","left","true"
"html-keyboard-response","10","18609","0.0-2.0-0.4","1045","22","pre","8","morning","2026-03-19","2026-03-31","2026-03-26T18:09:06.635Z","Mozilla/5.0 (Linux; Android 16; Pixel 10 Pro XL Build/BD3A.251105.010.E1; wv) AppleWebKit/537.36 (KHTML, like Gecko) Version/4.0 Chrome/146.0.7680.120 Mobile Safari/537.36","416","765","420","","null","<div style=""font-size:60px;"">+</div>","null","fixation","","","","","","","","","","","",""
"html-button-response","11","20563","0.0-2.0-1.4","1045","22","pre","8","morning","2026-03-19","2026-03-31","2026-03-26T18:09:06.635Z","Mozilla/5.0 (Linux; Android 16; Pixel 10 Pro XL Build/BD3A.251105.010.E1; wv) AppleWebKit/537.36 (KHTML, like Gecko) Version/4.0 Chrome/146.0.7680.120 Mobile Safari/537.36","416","765","420","","1950","<div class=""prompt"" style=""font-size:24px; margin-bottom:20px;"">Which word describes you more?</div>","1","pairing","5","helper","pleased","PosPos","90","15","positive","positive","75","pleased","right","true"
"html-keyboard-response","12","21366","0.0-2.0-0.5","1045","22","pre","8","morning","2026-03-19","2026-03-31","2026-03-26T18:09:06.635Z","Mozilla/5.0 (Linux; Android 16; Pixel 10 Pro XL Build/BD3A.251105.010.E1; wv) AppleWebKit/537.36 (KHTML, like Gecko) Version/4.0 Chrome/146.0.7680.120 Mobile Safari/537.36","416","765","420","","null","<div style=""font-size:60px;"">+</div>","null","fixation","","","","","","","","","","","",""
"html-button-response","13","23819","0.0-2.0-1.5","1045","22","pre","8","morning","2026-03-19","2026-03-31","2026-03-26T18:09:06.635Z","Mozilla/5.0 (Linux; Android 16; Pixel 10 Pro XL Build/BD3A.251105.010.E1; wv) AppleWebKit/537.36 (KHTML, like Gecko) Version/4.0 Chrome/146.0.7680.120 Mobile Safari/537.36","416","765","420","","2445","<div class=""prompt"" style=""font-size:24px; margin-bottom:20px;"">Which word describes you more?</div>","0","pairing","6","unlucky","traitor","NegNeg","60","0","negative","negative","60","unlucky","left","true"
"html-keyboard-response","14","24622","0.0-2.0-0.6","1045","22","pre","8","morning","2026-03-19","2026-03-31","2026-03-26T18:09:06.635Z","Mozilla/5.0 (Linux; Android 16; Pixel 10 Pro XL Build/BD3A.251105.010.E1; wv) AppleWebKit/537.36 (KHTML, like Gecko) Version/4.0 Chrome/146.0.7680.120 Mobile Safari/537.36","416","765","420","","null","<div style=""font-size:60px;"">+</div>","null","fixation","","","","","","","","","","","",""
"html-button-response","15","25934","0.0-2.0-1.6","1045","22","pre","8","morning","2026-03-19","2026-03-31","2026-03-26T18:09:06.635Z","Mozilla/5.0 (Linux; Android 16; Pixel 10 Pro XL Build/BD3A.251105.010.E1; wv) AppleWebKit/537.36 (KHTML, like Gecko) Version/4.0 Chrome/146.0.7680.120 Mobile Safari/537.36","416","765","420","","1307","<div class=""prompt"" style=""font-size:24px; margin-bottom:20px;"">Which word describes you more?</div>","0","pairing","7","flawless","menace","PosNeg","1","5","positive","negative","4","flawless","left","true"
"html-keyboard-response","16","26737","0.0-2.0-0.7","1045","22","pre","8","morning","2026-03-19","2026-03-31","2026-03-26T18:09:06.635Z","Mozilla/5.0 (Linux; Android 16; Pixel 10 Pro XL Build/BD3A.251105.010.E1; wv) AppleWebKit/537.36 (KHTML, like Gecko) Version/4.0 Chrome/146.0.7680.120 Mobile Safari/537.36","416","765","420","","null","<div style=""font-size:60px;"">+</div>","null","fixation","","","","","","","","","","","",""
"html-button-response","17","29602","0.0-2.0-1.7","1045","22","pre","8","morning","2026-03-19","2026-03-31","2026-03-26T18:09:06.635Z","Mozilla/5.0 (Linux; Android 16; Pixel 10 Pro XL Build/BD3A.251105.010.E1; wv) AppleWebKit/537.36 (KHTML, like Gecko) Version/4.0 Chrome/146.0.7680.120 Mobile Safari/537.36","416","765","420","","2859","<div class=""prompt"" style=""font-size:24px; margin-bottom:20px;"">Which word describes you more?</div>","1","pairing","8","peaceful","worthless","PosNeg","97","25","positive","negative","72","worthless","right","true"
"html-keyboard-response","18","30406","0.0-2.0-0.8","1045","22","pre","8","morning","2026-03-19","2026-03-31","2026-03-26T18:09:06.635Z","Mozilla/5.0 (Linux; Android 16; Pixel 10 Pro XL Build/BD3A.251105.010.E1; wv) AppleWebKit/537.36 (KHTML, like Gecko) Version/4.0 Chrome/146.0.7680.120 Mobile Safari/537.36","416","765","420","","null","<div style=""font-size:60px;"">+</div>","null","fixation","","","","","","","","","","","",""
"html-button-response","19","32790","0.0-2.0-1.8","1045","22","pre","8","morning","2026-03-19","2026-03-31","2026-03-26T18:09:06.635Z","Mozilla/5.0 (Linux; Android 16; Pixel 10 Pro XL Build/BD3A.251105.010.E1; wv) AppleWebKit/537.36 (KHTML, like Gecko) Version/4.0 Chrome/146.0.7680.120 Mobile Safari/537.36","416","765","420","","2379","<div class=""prompt"" style=""font-size:24px; margin-bottom:20px;"">Which word describes you more?</div>","1","pairing","9","menace","inspirational","PosNeg","5","76","negative","positive","71","inspirational","right","true"
"html-keyboard-response","20","33593","0.0-2.0-0.9","1045","22","pre","8","morning","2026-03-19","2026-03-31","2026-03-26T18:09:06.635Z","Mozilla/5.0 (Linux; Android 16; Pixel 10 Pro XL Build/BD3A.251105.010.E1; wv) AppleWebKit/537.36 (KHTML, like Gecko) Version/4.0 Chrome/146.0.7680.120 Mobile Safari/537.36","416","765","420","","null","<div style=""font-size:60px;"">+</div>","null","fixation","","","","","","","","","","","",""
"html-button-response","21","35593","0.0-2.0-1.9","1045","22","pre","8","morning","2026-03-19","2026-03-31","2026-03-26T18:09:06.635Z","Mozilla/5.0 (Linux; Android 16; Pixel 10 Pro XL Build/BD3A.251105.010.E1; wv) AppleWebKit/537.36 (KHTML, like Gecko) Version/4.0 Chrome/146.0.7680.120 Mobile Safari/537.36","416","765","420","","1994","<div class=""prompt"" style=""font-size:24px; margin-bottom:20px;"">Which word describes you more?</div>","1","pairing","10","parasite","irritating","NegNeg","2","11","negative","negative","9","irritating","right","true"
"html-keyboard-response","22","36397","0.0-2.0-0.10","1045","22","pre","8","morning","2026-03-19","2026-03-31","2026-03-26T18:09:06.635Z","Mozilla/5.0 (Linux; Android 16; Pixel 10 Pro XL Build/BD3A.251105.010.E1; wv) AppleWebKit/537.36 (KHTML, like Gecko) Version/4.0 Chrome/146.0.7680.120 Mobile Safari/537.36","416","765","420","","null","<div style=""font-size:60px;"">+</div>","null","fixation","","","","","","","","","","","",""
"html-button-response","23","38911","0.0-2.0-1.10","1045","22","pre","8","morning","2026-03-19","2026-03-31","2026-03-26T18:09:06.635Z","Mozilla/5.0 (Linux; Android 16; Pixel 10 Pro XL Build/BD3A.251105.010.E1; wv) AppleWebKit/537.36 (KHTML, like Gecko) Version/4.0 Chrome/146.0.7680.120 Mobile Safari/537.36","416","765","420","","2508","<div class=""prompt"" style=""font-size:24px; margin-bottom:20px;"">Which word describes you more?</div>","0","pairing","11","smiley","disgrace","PosNeg","14","0","positive","negative","14","smiley","left","true"
"html-keyboard-response","24","39716","0.0-2.0-0.11","1045","22","pre","8","morning","2026-03-19","2026-03-31","2026-03-26T18:09:06.635Z","Mozilla/5.0 (Linux; Android 16; Pixel 10 Pro XL Build/BD3A.251105.010.E1; wv) AppleWebKit/537.36 (KHTML, like Gecko) Version/4.0 Chrome/146.0.7680.120 Mobile Safari/537.36","416","765","420","","null","<div style=""font-size:60px;"">+</div>","null","fixation","","","","","","","","","","","",""
"html-button-response","25","41686","0.0-2.0-1.11","1045","22","pre","8","morning","2026-03-19","2026-03-31","2026-03-26T18:09:06.635Z","Mozilla/5.0 (Linux; Android 16; Pixel 10 Pro XL Build/BD3A.251105.010.E1; wv) AppleWebKit/537.36 (KHTML, like Gecko) Version/4.0 Chrome/146.0.7680.120 Mobile Safari/537.36","416","765","420","","1966","<div class=""prompt"" style=""font-size:24px; margin-bottom:20px;"">Which word describes you more?</div>","0","pairing","12","pleased","clever","PosPos","15","90","positive","positive","75","pleased","left","true"
"html-keyboard-response","26","42488","0.0-2.0-0.12","1045","22","pre","8","morning","2026-03-19","2026-03-31","2026-03-26T18:09:06.635Z","Mozilla/5.0 (Linux; Android 16; Pixel 10 Pro XL Build/BD3A.251105.010.E1; wv) AppleWebKit/537.36 (KHTML, like Gecko) Version/4.0 Chrome/146.0.7680.120 Mobile Safari/537.36","416","765","420","","null","<div style=""font-size:60px;"">+</div>","null","fixation","","","","","","","","","","","",""
"html-button-response","27","44479","0.0-2.0-1.12","1045","22","pre","8","morning","2026-03-19","2026-03-31","2026-03-26T18:09:06.635Z","Mozilla/5.0 (Linux; Android 16; Pixel 10 Pro XL Build/BD3A.251105.010.E1; wv) AppleWebKit/537.36 (KHTML, like Gecko) Version/4.0 Chrome/146.0.7680.120 Mobile Safari/537.36","416","765","420","","1987","<div class=""prompt"" style=""font-size:24px; margin-bottom:20px;"">Which word describes you more?</div>","0","pairing","13","anxious","alluring","PosNeg","86","29","negative","positive","57","anxious","left","true"
"html-keyboard-response","28","45283","0.0-2.0-0.13","1045","22","pre","8","morning","2026-03-19","2026-03-31","2026-03-26T18:09:06.635Z","Mozilla/5.0 (Linux; Android 16; Pixel 10 Pro XL Build/BD3A.251105.010.E1; wv) AppleWebKit/537.36 (KHTML, like Gecko) Version/4.0 Chrome/146.0.7680.120 Mobile Safari/537.36","416","765","420","","null","<div style=""font-size:60px;"">+</div>","null","fixation","","","","","","","","","","","",""
"html-button-response","29","46452","0.0-2.0-1.13","1045","22","pre","8","morning","2026-03-19","2026-03-31","2026-03-26T18:09:06.635Z","Mozilla/5.0 (Linux; Android 16; Pixel 10 Pro XL Build/BD3A.251105.010.E1; wv) AppleWebKit/537.36 (KHTML, like Gecko) Version/4.0 Chrome/146.0.7680.120 Mobile Safari/537.36","416","765","420","","1165","<div class=""prompt"" style=""font-size:24px; margin-bottom:20px;"">Which word describes you more?</div>","0","pairing","14","anxious","smiley","PosNeg","86","14","negative","positive","72","anxious","left","true"
"html-keyboard-response","30","47255","0.0-2.0-0.14","1045","22","pre","8","morning","2026-03-19","2026-03-31","2026-03-26T18:09:06.635Z","Mozilla/5.0 (Linux; Android 16; Pixel 10 Pro XL Build/BD3A.251105.010.E1; wv) AppleWebKit/537.36 (KHTML, like Gecko) Version/4.0 Chrome/146.0.7680.120 Mobile Safari/537.36","416","765","420","","null","<div style=""font-size:60px;"">+</div>","null","fixation","","","","","","","","","","","",""
"html-button-response","31","49934","0.0-2.0-1.14","1045","22","pre","8","morning","2026-03-19","2026-03-31","2026-03-26T18:09:06.635Z","Mozilla/5.0 (Linux; Android 16; Pixel 10 Pro XL Build/BD3A.251105.010.E1; wv) AppleWebKit/537.36 (KHTML, like Gecko) Version/4.0 Chrome/146.0.7680.120 Mobile Safari/537.36","416","765","420","","2677","<div class=""prompt"" style=""font-size:24px; margin-bottom:20px;"">Which word describes you more?</div>","0","pairing","15","charming","boring","PosNeg","71","26","positive","negative","45","charming","left","true"
"html-keyboard-response","32","50738","0.0-2.0-0.15","1045","22","pre","8","morning","2026-03-19","2026-03-31","2026-03-26T18:09:06.635Z","Mozilla/5.0 (Linux; Android 16; Pixel 10 Pro XL Build/BD3A.251105.010.E1; wv) AppleWebKit/537.36 (KHTML, like Gecko) Version/4.0 Chrome/146.0.7680.120 Mobile Safari/537.36","416","765","420","","null","<div style=""font-size:60px;"">+</div>","null","fixation","","","","","","","","","","","",""
"html-button-response","33","54414","0.0-2.0-1.15","1045","22","pre","8","morning","2026-03-19","2026-03-31","2026-03-26T18:09:06.635Z","Mozilla/5.0 (Linux; Android 16; Pixel 10 Pro XL Build/BD3A.251105.010.E1; wv) AppleWebKit/537.36 (KHTML, like Gecko) Version/4.0 Chrome/146.0.7680.120 Mobile Safari/537.36","416","765","420","","3670","<div class=""prompt"" style=""font-size:24px; margin-bottom:20px;"">Which word describes you more?</div>","1","pairing","16","sadistic","achiever","PosNeg","9","67","negative","positive","58","achiever","right","true"
"html-keyboard-response","34","55216","0.0-2.0-0.16","1045","22","pre","8","morning","2026-03-19","2026-03-31","2026-03-26T18:09:06.635Z","Mozilla/5.0 (Linux; Android 16; Pixel 10 Pro XL Build/BD3A.251105.010.E1; wv) AppleWebKit/537.36 (KHTML, like Gecko) Version/4.0 Chrome/146.0.7680.120 Mobile Safari/537.36","416","765","420","","null","<div style=""font-size:60px;"">+</div>","null","fixation","","","","","","","","","","","",""
"html-button-response","35","56554","0.0-2.0-1.16","1045","22","pre","8","morning","2026-03-19","2026-03-31","2026-03-26T18:09:06.635Z","Mozilla/5.0 (Linux; Android 16; Pixel 10 Pro XL Build/BD3A.251105.010.E1; wv) AppleWebKit/537.36 (KHTML, like Gecko) Version/4.0 Chrome/146.0.7680.120 Mobile Safari/537.36","416","765","420","","1336","<div class=""prompt"" style=""font-size:24px; margin-bottom:20px;"">Which word describes you more?</div>","0","pairing","17","dull","heartbroken","NegNeg","0","43","negative","negative","43","dull","left","true"
"html-keyboard-response","36","57356","0.0-2.0-0.17","1045","22","pre","8","morning","2026-03-19","2026-03-31","2026-03-26T18:09:06.635Z","Mozilla/5.0 (Linux; Android 16; Pixel 10 Pro XL Build/BD3A.251105.010.E1; wv) AppleWebKit/537.36 (KHTML, like Gecko) Version/4.0 Chrome/146.0.7680.120 Mobile Safari/537.36","416","765","420","","null","<div style=""font-size:60px;"">+</div>","null","fixation","","","","","","","","","","","",""
"html-button-response","37","59443","0.0-2.0-1.17","1045","22","pre","8","morning","2026-03-19","2026-03-31","2026-03-26T18:09:06.635Z","Mozilla/5.0 (Linux; Android 16; Pixel 10 Pro XL Build/BD3A.251105.010.E1; wv) AppleWebKit/537.36 (KHTML, like Gecko) Version/4.0 Chrome/146.0.7680.120 Mobile Safari/537.36","416","765","420","","2084","<div class=""prompt"" style=""font-size:24px; margin-bottom:20px;"">Which word describes you more?</div>","0","pairing","18","untrustworthy","rude","NegNeg","20","8","negative","negative","12","untrustworthy","left","true"
"html-keyboard-response","38","60245","0.0-2.0-0.18","1045","22","pre","8","morning","2026-03-19","2026-03-31","2026-03-26T18:09:06.635Z","Mozilla/5.0 (Linux; Android 16; Pixel 10 Pro XL Build/BD3A.251105.010.E1; wv) AppleWebKit/537.36 (KHTML, like Gecko) Version/4.0 Chrome/146.0.7680.120 Mobile Safari/537.36","416","765","420","","null","<div style=""font-size:60px;"">+</div>","null","fixation","","","","","","","","","","","",""
"html-button-response","39","62969","0.0-2.0-1.18","1045","22","pre","8","morning","2026-03-19","2026-03-31","2026-03-26T18:09:06.635Z","Mozilla/5.0 (Linux; Android 16; Pixel 10 Pro XL Build/BD3A.251105.010.E1; wv) AppleWebKit/537.36 (KHTML, like Gecko) Version/4.0 Chrome/146.0.7680.120 Mobile Safari/537.36","416","765","420","","2722","<div class=""prompt"" style=""font-size:24px; margin-bottom:20px;"">Which word describes you more?</div>","0","pairing","19","authentic","alluring","PosPos","85","29","positive","positive","56","authentic","left","true"
"html-keyboard-response","40","63772","0.0-2.0-0.19","1045","22","pre","8","morning","2026-03-19","2026-03-31","2026-03-26T18:09:06.635Z","Mozilla/5.0 (Linux; Android 16; Pixel 10 Pro XL Build/BD3A.251105.010.E1; wv) AppleWebKit/537.36 (KHTML, like Gecko) Version/4.0 Chrome/146.0.7680.120 Mobile Safari/537.36","416","765","420","","null","<div style=""font-size:60px;"">+</div>","null","fixation","","","","","","","","","","","",""
"html-button-response","41","65946","0.0-2.0-1.19","1045","22","pre","8","morning","2026-03-19","2026-03-31","2026-03-26T18:09:06.635Z","Mozilla/5.0 (Linux; Android 16; Pixel 10 Pro XL Build/BD3A.251105.010.E1; wv) AppleWebKit/537.36 (KHTML, like Gecko) Version/4.0 Chrome/146.0.7680.120 Mobile Safari/537.36","416","765","420","","2169","<div class=""prompt"" style=""font-size:24px; margin-bottom:20px;"">Which word describes you more?</div>","1","pairing","20","unlucky","asset","PosNeg","60","48","negative","positive","12","asset","right","true"
"html-keyboard-response","42","66751","0.0-2.0-0.20","1045","22","pre","8","morning","2026-03-19","2026-03-31","2026-03-26T18:09:06.635Z","Mozilla/5.0 (Linux; Android 16; Pixel 10 Pro XL Build/BD3A.251105.010.E1; wv) AppleWebKit/537.36 (KHTML, like Gecko) Version/4.0 Chrome/146.0.7680.120 Mobile Safari/537.36","416","765","420","","null","<div style=""font-size:60px;"">+</div>","null","fixation","","","","","","","","","","","",""
"html-button-response","43","69522","0.0-2.0-1.20","1045","22","pre","8","morning","2026-03-19","2026-03-31","2026-03-26T18:09:06.635Z","Mozilla/5.0 (Linux; Android 16; Pixel 10 Pro XL Build/BD3A.251105.010.E1; wv) AppleWebKit/537.36 (KHTML, like Gecko) Version/4.0 Chrome/146.0.7680.120 Mobile Safari/537.36","416","765","420","","2759","<div class=""prompt"" style=""font-size:24px; margin-bottom:20px;"">Which word describes you more?</div>","1","pairing","21","tolerant","witty","PosPos","72","69","positive","positive","3","witty","right","true"
"html-keyboard-response","44","70324","0.0-2.0-0.21","1045","22","pre","8","morning","2026-03-19","2026-03-31","2026-03-26T18:09:06.635Z","Mozilla/5.0 (Linux; Android 16; Pixel 10 Pro XL Build/BD3A.251105.010.E1; wv) AppleWebKit/537.36 (KHTML, like Gecko) Version/4.0 Chrome/146.0.7680.120 Mobile Safari/537.36","416","765","420","","null","<div style=""font-size:60px;"">+</div>","null","fixation","","","","","","","","","","","",""
"html-button-response","45","72096","0.0-2.0-1.21","1045","22","pre","8","morning","2026-03-19","2026-03-31","2026-03-26T18:09:06.635Z","Mozilla/5.0 (Linux; Android 16; Pixel 10 Pro XL Build/BD3A.251105.010.E1; wv) AppleWebKit/537.36 (KHTML, like Gecko) Version/4.0 Chrome/146.0.7680.120 Mobile Safari/537.36","416","765","420","","1768","<div class=""prompt"" style=""font-size:24px; margin-bottom:20px;"">Which word describes you more?</div>","1","pairing","22","flawless","hater","PosNeg","1","69","positive","negative","68","hater","right","true"
"html-keyboard-response","46","72900","0.0-2.0-0.22","1045","22","pre","8","morning","2026-03-19","2026-03-31","2026-03-26T18:09:06.635Z","Mozilla/5.0 (Linux; Android 16; Pixel 10 Pro XL Build/BD3A.251105.010.E1; wv) AppleWebKit/537.36 (KHTML, like Gecko) Version/4.0 Chrome/146.0.7680.120 Mobile Safari/537.36","416","765","420","","null","<div style=""font-size:60px;"">+</div>","null","fixation","","","","","","","","","","","",""
"html-button-response","47","75164","0.0-2.0-1.22","1045","22","pre","8","morning","2026-03-19","2026-03-31","2026-03-26T18:09:06.635Z","Mozilla/5.0 (Linux; Android 16; Pixel 10 Pro XL Build/BD3A.251105.010.E1; wv) AppleWebKit/537.36 (KHTML, like Gecko) Version/4.0 Chrome/146.0.7680.120 Mobile Safari/537.36","416","765","420","","2261","<div class=""prompt"" style=""font-size:24px; margin-bottom:20px;"">Which word describes you more?</div>","1","pairing","23","asset","graceful","PosPos","48","59","positive","positive","11","graceful","right","true"
"html-keyboard-response","48","75967","0.0-2.0-0.23","1045","22","pre","8","morning","2026-03-19","2026-03-31","2026-03-26T18:09:06.635Z","Mozilla/5.0 (Linux; Android 16; Pixel 10 Pro XL Build/BD3A.251105.010.E1; wv) AppleWebKit/537.36 (KHTML, like Gecko) Version/4.0 Chrome/146.0.7680.120 Mobile Safari/537.36","416","765","420","","null","<div style=""font-size:60px;"">+</div>","null","fixation","","","","","","","","","","","",""
"html-button-response","49","77905","0.0-2.0-1.23","1045","22","pre","8","morning","2026-03-19","2026-03-31","2026-03-26T18:09:06.635Z","Mozilla/5.0 (Linux; Android 16; Pixel 10 Pro XL Build/BD3A.251105.010.E1; wv) AppleWebKit/537.36 (KHTML, like Gecko) Version/4.0 Chrome/146.0.7680.120 Mobile Safari/537.36","416","765","420","","1935","<div class=""prompt"" style=""font-size:24px; margin-bottom:20px;"">Which word describes you more?</div>","1","pairing","24","virtuous","anxious","PosNeg","47","86","positive","negative","39","anxious","right","true"
"instructions","50","78729","0.0-3.0","1045","22","pre","8","morning","2026-03-19","2026-03-31","2026-03-26T18:09:06.635Z","Mozilla/5.0 (Linux; Android 16; Pixel 10 Pro XL Build/BD3A.251105.010.E1; wv) AppleWebKit/537.36 (KHTML, like Gecko) Version/4.0 Chrome/146.0.7680.120 Mobile Safari/537.36","416","765","420","[{""page_index"":0,""viewing_time"":821}]","821","","","","","","","","","","","","","","",""
