"trial_type","trial_index","time_elapsed","internal_node_id","BASE_QUALTRICS_ID","PUNS_ID","baseline_date","baseline_time","session_day","session_slot","experiment_start","browser","screen_width","screen_height","timezone_offset","view_history","rt","stimulus","response","trial_number","left_word","right_word","valence","left_base_rating","right_base_rating","left_valence","right_valence","abs_diff","participant_response","chosen_side","valid_response","which_experiment_phase"
"pavlovia","0","1077","0.0-0.0","","1001","2025-09-22","21:22:42.054Z","day5","morning","2025-09-26T18:42:25.498Z","Mozilla/5.0 (iPhone; CPU iPhone OS 18_6_2 like Mac OS X) AppleWebKit/605.1.15 (KHTML, like Gecko) Version/18.6 Mobile/15E148 Safari/604.1","390","663","420","","","","","","","","","","","","","","","","",""
"instructions","1","24676","0.0-1.0","","1001","2025-09-22","21:22:42.054Z","day5","morning","2025-09-26T18:42:25.498Z","Mozilla/5.0 (iPhone; CPU iPhone OS 18_6_2 like Mac OS X) AppleWebKit/605.1.15 (KHTML, like Gecko) Version/18.6 Mobile/15E148 Safari/604.1","390","663","420","[{""page_index"":0,""viewing_time"":4734},{""page_index"":1,""viewing_time"":4290},{""page_index"":2,""viewing_time"":9486},{""page_index"":3,""viewing_time"":5083}]","23594","","","","","","","","","","","","","","",""
"html-button-response","2","26963","0.0-2.0-0.0","","1001","2025-09-22","21:22:42.054Z","day5","morning","2025-09-26T18:42:25.498Z","Mozilla/5.0 (iPhone; CPU iPhone OS 18_6_2 like Mac OS X) AppleWebKit/605.1.15 (KHTML, like Gecko) Version/18.6 Mobile/15E148 Safari/604.1","390","663","420","","2281","<div class=""prompt"">Which word describes you more?</div>","1","1","empty","achiever","PosNeg","93","18","negative","positive","75","achiever","right","true","pairing"
"html-button-response","3","29231","0.0-2.0-0.1","","1001","2025-09-22","21:22:42.054Z","day5","morning","2025-09-26T18:42:25.498Z","Mozilla/5.0 (iPhone; CPU iPhone OS 18_6_2 like Mac OS X) AppleWebKit/605.1.15 (KHTML, like Gecko) Version/18.6 Mobile/15E148 Safari/604.1","390","663","420","","2265","<div class=""prompt"">Which word describes you more?</div>","1","2","jerk","spontaneous","PosNeg","46","55","negative","positive","9","spontaneous","right","true","pairing"
"html-button-response","4","31965","0.0-2.0-0.2","","1001","2025-09-22","21:22:42.054Z","day5","morning","2025-09-26T18:42:25.498Z","Mozilla/5.0 (iPhone; CPU iPhone OS 18_6_2 like Mac OS X) AppleWebKit/605.1.15 (KHTML, like Gecko) Version/18.6 Mobile/15E148 Safari/604.1","390","663","420","","2732","<div class=""prompt"">Which word describes you more?</div>","1","3","degenerate","visionary","PosNeg","66","52","negative","positive","14","visionary","right","true","pairing"
"html-button-response","5","34781","0.0-2.0-0.3","","1001","2025-09-22","21:22:42.054Z","day5","morning","2025-09-26T18:42:25.498Z","Mozilla/5.0 (iPhone; CPU iPhone OS 18_6_2 like Mac OS X) AppleWebKit/605.1.15 (KHTML, like Gecko) Version/18.6 Mobile/15E148 Safari/604.1","390","663","420","","2813","<div class=""prompt"">Which word describes you more?</div>","0","4","valued","alluring","PosPos","38","74","positive","positive","36","valued","left","true","pairing"
"html-button-response","6","37665","0.0-2.0-0.4","","1001","2025-09-22","21:22:42.054Z","day5","morning","2025-09-26T18:42:25.498Z","Mozilla/5.0 (iPhone; CPU iPhone OS 18_6_2 like Mac OS X) AppleWebKit/605.1.15 (KHTML, like Gecko) Version/18.6 Mobile/15E148 Safari/604.1","390","663","420","","2882","<div class=""prompt"">Which word describes you more?</div>","0","5","ambitious","incompetent","PosNeg","63","17","positive","negative","46","ambitious","left","true","pairing"
"html-button-response","7","39368","0.0-2.0-0.5","","1001","2025-09-22","21:22:42.054Z","day5","morning","2025-09-26T18:42:25.498Z","Mozilla/5.0 (iPhone; CPU iPhone OS 18_6_2 like Mac OS X) AppleWebKit/605.1.15 (KHTML, like Gecko) Version/18.6 Mobile/15E148 Safari/604.1","390","663","420","","1700","<div class=""prompt"">Which word describes you more?</div>","1","6","untrustworthy","valued","PosNeg","51","38","negative","positive","13","valued","right","true","pairing"
"html-button-response","8","42001","0.0-2.0-0.6","","1001","2025-09-22","21:22:42.054Z","day5","morning","2025-09-26T18:42:25.498Z","Mozilla/5.0 (iPhone; CPU iPhone OS 18_6_2 like Mac OS X) AppleWebKit/605.1.15 (KHTML, like Gecko) Version/18.6 Mobile/15E148 Safari/604.1","390","663","420","","2631","<div class=""prompt"">Which word describes you more?</div>","0","7","bitter","defective","NegNeg","67","17","negative","negative","50","bitter","left","true","pairing"
"html-button-response","9","44836","0.0-2.0-0.7","","1001","2025-09-22","21:22:42.054Z","day5","morning","2025-09-26T18:42:25.498Z","Mozilla/5.0 (iPhone; CPU iPhone OS 18_6_2 like Mac OS X) AppleWebKit/605.1.15 (KHTML, like Gecko) Version/18.6 Mobile/15E148 Safari/604.1","390","663","420","","2833","<div class=""prompt"">Which word describes you more?</div>","1","8","humorous","fun","PosPos","55","61","positive","positive","6","fun","right","true","pairing"
"html-button-response","10","46937","0.0-2.0-0.8","","1001","2025-09-22","21:22:42.054Z","day5","morning","2025-09-26T18:42:25.498Z","Mozilla/5.0 (iPhone; CPU iPhone OS 18_6_2 like Mac OS X) AppleWebKit/605.1.15 (KHTML, like Gecko) Version/18.6 Mobile/15E148 Safari/604.1","390","663","420","","2099","<div class=""prompt"">Which word describes you more?</div>","0","9","devoted","outcast","PosNeg","30","68","positive","negative","38","devoted","left","true","pairing"
"html-button-response","11","49037","0.0-2.0-0.9","","1001","2025-09-22","21:22:42.054Z","day5","morning","2025-09-26T18:42:25.498Z","Mozilla/5.0 (iPhone; CPU iPhone OS 18_6_2 like Mac OS X) AppleWebKit/605.1.15 (KHTML, like Gecko) Version/18.6 Mobile/15E148 Safari/604.1","390","663","420","","2099","<div class=""prompt"">Which word describes you more?</div>","0","10","valued","hesitant","PosNeg","38","58","positive","negative","20","valued","left","true","pairing"
"html-button-response","12","52622","0.0-2.0-0.10","","1001","2025-09-22","21:22:42.054Z","day5","morning","2025-09-26T18:42:25.498Z","Mozilla/5.0 (iPhone; CPU iPhone OS 18_6_2 like Mac OS X) AppleWebKit/605.1.15 (KHTML, like Gecko) Version/18.6 Mobile/15E148 Safari/604.1","390","663","420","","3583","<div class=""prompt"">Which word describes you more?</div>","0","11","humorous","anxious","PosNeg","55","63","positive","negative","8","humorous","left","true","pairing"
"html-button-response","13","55973","0.0-2.0-0.11","","1001","2025-09-22","21:22:42.054Z","day5","morning","2025-09-26T18:42:25.498Z","Mozilla/5.0 (iPhone; CPU iPhone OS 18_6_2 like Mac OS X) AppleWebKit/605.1.15 (KHTML, like Gecko) Version/18.6 Mobile/15E148 Safari/604.1","390","663","420","","3349","<div class=""prompt"">Which word describes you more?</div>","1","12","shameful","devoted","PosNeg","61","30","negative","positive","31","devoted","right","true","pairing"
"html-button-response","14","58308","0.0-2.0-0.12","","1001","2025-09-22","21:22:42.054Z","day5","morning","2025-09-26T18:42:25.498Z","Mozilla/5.0 (iPhone; CPU iPhone OS 18_6_2 like Mac OS X) AppleWebKit/605.1.15 (KHTML, like Gecko) Version/18.6 Mobile/15E148 Safari/604.1","390","663","420","","2332","<div class=""prompt"">Which word describes you more?</div>","1","13","regretful","fun","PosNeg","8","61","negative","positive","53","fun","right","true","pairing"
"html-button-response","15","61475","0.0-2.0-0.13","","1001","2025-09-22","21:22:42.054Z","day5","morning","2025-09-26T18:42:25.498Z","Mozilla/5.0 (iPhone; CPU iPhone OS 18_6_2 like Mac OS X) AppleWebKit/605.1.15 (KHTML, like Gecko) Version/18.6 Mobile/15E148 Safari/604.1","390","663","420","","3166","<div class=""prompt"">Which word describes you more?</div>","0","14","seeker","gloomy","PosNeg","20","18","positive","negative","2","seeker","left","true","pairing"
"html-button-response","16","63960","0.0-2.0-0.14","","1001","2025-09-22","21:22:42.054Z","day5","morning","2025-09-26T18:42:25.498Z","Mozilla/5.0 (iPhone; CPU iPhone OS 18_6_2 like Mac OS X) AppleWebKit/605.1.15 (KHTML, like Gecko) Version/18.6 Mobile/15E148 Safari/604.1","390","663","420","","2483","<div class=""prompt"">Which word describes you more?</div>","1","15","miserable","asset","PosNeg","20","48","negative","positive","28","asset","right","true","pairing"
"html-button-response","17","68613","0.0-2.0-0.15","","1001","2025-09-22","21:22:42.054Z","day5","morning","2025-09-26T18:42:25.498Z","Mozilla/5.0 (iPhone; CPU iPhone OS 18_6_2 like Mac OS X) AppleWebKit/605.1.15 (KHTML, like Gecko) Version/18.6 Mobile/15E148 Safari/604.1","390","663","420","","4650","<div class=""prompt"">Which word describes you more?</div>","1","16","disgusting","adventurous","PosNeg","49","48","negative","positive","1","adventurous","right","true","pairing"
"html-button-response","18","70266","0.0-2.0-0.16","","1001","2025-09-22","21:22:42.054Z","day5","morning","2025-09-26T18:42:25.498Z","Mozilla/5.0 (iPhone; CPU iPhone OS 18_6_2 like Mac OS X) AppleWebKit/605.1.15 (KHTML, like Gecko) Version/18.6 Mobile/15E148 Safari/604.1","390","663","420","","1652","<div class=""prompt"">Which word describes you more?</div>","1","17","garbage","brave","PosNeg","81","44","negative","positive","37","brave","right","true","pairing"
"html-button-response","19","72299","0.0-2.0-0.17","","1001","2025-09-22","21:22:42.054Z","day5","morning","2025-09-26T18:42:25.498Z","Mozilla/5.0 (iPhone; CPU iPhone OS 18_6_2 like Mac OS X) AppleWebKit/605.1.15 (KHTML, like Gecko) Version/18.6 Mobile/15E148 Safari/604.1","390","663","420","","2031","<div class=""prompt"">Which word describes you more?</div>","0","18","easygoing","failure","PosNeg","48","35","positive","negative","13","easygoing","left","true","pairing"
"html-button-response","20","75865","0.0-2.0-0.18","","1001","2025-09-22","21:22:42.054Z","day5","morning","2025-09-26T18:42:25.498Z","Mozilla/5.0 (iPhone; CPU iPhone OS 18_6_2 like Mac OS X) AppleWebKit/605.1.15 (KHTML, like Gecko) Version/18.6 Mobile/15E148 Safari/604.1","390","663","420","","3563","<div class=""prompt"">Which word describes you more?</div>","1","19","disastrous","menace","NegNeg","71","49","negative","negative","22","menace","right","true","pairing"
"html-button-response","21","80315","0.0-2.0-0.19","","1001","2025-09-22","21:22:42.054Z","day5","morning","2025-09-26T18:42:25.498Z","Mozilla/5.0 (iPhone; CPU iPhone OS 18_6_2 like Mac OS X) AppleWebKit/605.1.15 (KHTML, like Gecko) Version/18.6 Mobile/15E148 Safari/604.1","390","663","420","","4448","<div class=""prompt"">Which word describes you more?</div>","0","20","witty","garbage","PosNeg","13","81","positive","negative","68","witty","left","true","pairing"
"instructions","22","110610","0.0-3.0","","1001","2025-09-22","21:22:42.054Z","day5","morning","2025-09-26T18:42:25.498Z","Mozilla/5.0 (iPhone; CPU iPhone OS 18_6_2 like Mac OS X) AppleWebKit/605.1.15 (KHTML, like Gecko) Version/18.6 Mobile/15E148 Safari/604.1","390","663","420","[{""page_index"":0,""viewing_time"":30289}]","30289","","","","","","","","","","","","","","",""
