"trial_type","trial_index","time_elapsed","internal_node_id","PUNS_ID","session_number","session_phase","completed_before_this","experiment_start","browser","screen_width","screen_height","timezone_offset","view_history","rt","stimulus","response","which_experiment_phase","trial_number","left_word","right_word","valence","left_base_rating","right_base_rating","left_valence","right_valence","abs_diff","participant_response","chosen_side","valid_response","value"
"pavlovia","0","1775","0.0-0.0","9005","1","pre","0","2026-02-05T07:53:52.772Z","Mozilla/5.0 (iPhone; CPU iPhone OS 18_7 like Mac OS X) AppleWebKit/605.1.15 (KHTML, like Gecko) Mobile/15E148","358","632","300","","","","","","","","","","","","","","","","","",""
"instructions","1","9610","0.0-1.0","9005","1","pre","0","2026-02-05T07:53:52.772Z","Mozilla/5.0 (iPhone; CPU iPhone OS 18_7 like Mac OS X) AppleWebKit/605.1.15 (KHTML, like Gecko) Mobile/15E148","358","632","300","[{""page_index"":0,""viewing_time"":1837},{""page_index"":1,""viewing_time"":2221},{""page_index"":2,""viewing_time"":2152},{""page_index"":3,""viewing_time"":1619}]","7832","","","","","","","","","","","","","","","",""
"html-keyboard-response","2","10415","0.0-2.0-0.0","9005","1","pre","0","2026-02-05T07:53:52.772Z","Mozilla/5.0 (iPhone; CPU iPhone OS 18_7 like Mac OS X) AppleWebKit/605.1.15 (KHTML, like Gecko) Mobile/15E148","358","632","300","","null","<div style=""font-size:60px;"">+</div>","null","fixation","","","","","","","","","","","","",""
"html-button-response","3","11134","0.0-2.0-1.0","9005","1","pre","0","2026-02-05T07:53:52.772Z","Mozilla/5.0 (iPhone; CPU iPhone OS 18_7 like Mac OS X) AppleWebKit/605.1.15 (KHTML, like Gecko) Mobile/15E148","358","632","300","","712","<div class=""prompt"" style=""font-size:24px; margin-bottom:20px;"">Which word describes you more?</div>","1","pairing","1","turnoff","lazy","NegNeg","49","15","negative","negative","34","lazy","right","true",""
"html-keyboard-response","4","11937","0.0-2.0-0.1","9005","1","pre","0","2026-02-05T07:53:52.772Z","Mozilla/5.0 (iPhone; CPU iPhone OS 18_7 like Mac OS X) AppleWebKit/605.1.15 (KHTML, like Gecko) Mobile/15E148","358","632","300","","null","<div style=""font-size:60px;"">+</div>","null","fixation","","","","","","","","","","","","",""
"html-button-response","5","12643","0.0-2.0-1.1","9005","1","pre","0","2026-02-05T07:53:52.772Z","Mozilla/5.0 (iPhone; CPU iPhone OS 18_7 like Mac OS X) AppleWebKit/605.1.15 (KHTML, like Gecko) Mobile/15E148","358","632","300","","701","<div class=""prompt"" style=""font-size:24px; margin-bottom:20px;"">Which word describes you more?</div>","0","pairing","2","disgrace","radiant","PosNeg","69","49","negative","positive","20","disgrace","left","true",""
"html-keyboard-response","6","13446","0.0-2.0-0.2","9005","1","pre","0","2026-02-05T07:53:52.772Z","Mozilla/5.0 (iPhone; CPU iPhone OS 18_7 like Mac OS X) AppleWebKit/605.1.15 (KHTML, like Gecko) Mobile/15E148","358","632","300","","null","<div style=""font-size:60px;"">+</div>","null","fixation","","","","","","","","","","","","",""
"html-button-response","7","14233","0.0-2.0-1.2","9005","1","pre","0","2026-02-05T07:53:52.772Z","Mozilla/5.0 (iPhone; CPU iPhone OS 18_7 like Mac OS X) AppleWebKit/605.1.15 (KHTML, like Gecko) Mobile/15E148","358","632","300","","784","<div class=""prompt"" style=""font-size:24px; margin-bottom:20px;"">Which word describes you more?</div>","1","pairing","3","safe","disgusting","PosNeg","69","15","positive","negative","54","disgusting","right","true",""
"html-keyboard-response","8","15036","0.0-2.0-0.3","9005","1","pre","0","2026-02-05T07:53:52.772Z","Mozilla/5.0 (iPhone; CPU iPhone OS 18_7 like Mac OS X) AppleWebKit/605.1.15 (KHTML, like Gecko) Mobile/15E148","358","632","300","","null","<div style=""font-size:60px;"">+</div>","null","fixation","","","","","","","","","","","","",""
"html-button-response","9","15781","0.0-2.0-1.3","9005","1","pre","0","2026-02-05T07:53:52.772Z","Mozilla/5.0 (iPhone; CPU iPhone OS 18_7 like Mac OS X) AppleWebKit/605.1.15 (KHTML, like Gecko) Mobile/15E148","358","632","300","","742","<div class=""prompt"" style=""font-size:24px; margin-bottom:20px;"">Which word describes you more?</div>","1","pairing","4","idealistic","phony","PosNeg","15","49","positive","negative","34","phony","right","true",""
"html-keyboard-response","10","16583","0.0-2.0-0.4","9005","1","pre","0","2026-02-05T07:53:52.772Z","Mozilla/5.0 (iPhone; CPU iPhone OS 18_7 like Mac OS X) AppleWebKit/605.1.15 (KHTML, like Gecko) Mobile/15E148","358","632","300","","null","<div style=""font-size:60px;"">+</div>","null","fixation","","","","","","","","","","","","",""
"html-button-response","11","17299","0.0-2.0-1.4","9005","1","pre","0","2026-02-05T07:53:52.772Z","Mozilla/5.0 (iPhone; CPU iPhone OS 18_7 like Mac OS X) AppleWebKit/605.1.15 (KHTML, like Gecko) Mobile/15E148","358","632","300","","713","<div class=""prompt"" style=""font-size:24px; margin-bottom:20px;"">Which word describes you more?</div>","0","pairing","5","champion","witty","PosPos","22","69","positive","positive","47","champion","left","true",""
"html-keyboard-response","12","18102","0.0-2.0-0.5","9005","1","pre","0","2026-02-05T07:53:52.772Z","Mozilla/5.0 (iPhone; CPU iPhone OS 18_7 like Mac OS X) AppleWebKit/605.1.15 (KHTML, like Gecko) Mobile/15E148","358","632","300","","null","<div style=""font-size:60px;"">+</div>","null","fixation","","","","","","","","","","","","",""
"html-button-response","13","18917","0.0-2.0-1.5","9005","1","pre","0","2026-02-05T07:53:52.772Z","Mozilla/5.0 (iPhone; CPU iPhone OS 18_7 like Mac OS X) AppleWebKit/605.1.15 (KHTML, like Gecko) Mobile/15E148","358","632","300","","812","<div class=""prompt"" style=""font-size:24px; margin-bottom:20px;"">Which word describes you more?</div>","1","pairing","6","degenerate","comfortable","PosNeg","69","15","negative","positive","54","comfortable","right","true",""
"html-keyboard-response","14","19720","0.0-2.0-0.6","9005","1","pre","0","2026-02-05T07:53:52.772Z","Mozilla/5.0 (iPhone; CPU iPhone OS 18_7 like Mac OS X) AppleWebKit/605.1.15 (KHTML, like Gecko) Mobile/15E148","358","632","300","","null","<div style=""font-size:60px;"">+</div>","null","fixation","","","","","","","","","","","","",""
"html-button-response","15","20390","0.0-2.0-1.6","9005","1","pre","0","2026-02-05T07:53:52.772Z","Mozilla/5.0 (iPhone; CPU iPhone OS 18_7 like Mac OS X) AppleWebKit/605.1.15 (KHTML, like Gecko) Mobile/15E148","358","632","300","","666","<div class=""prompt"" style=""font-size:24px; margin-bottom:20px;"">Which word describes you more?</div>","0","pairing","7","hater","rude","NegNeg","69","49","negative","negative","20","hater","left","true",""
"html-keyboard-response","16","21192","0.0-2.0-0.7","9005","1","pre","0","2026-02-05T07:53:52.772Z","Mozilla/5.0 (iPhone; CPU iPhone OS 18_7 like Mac OS X) AppleWebKit/605.1.15 (KHTML, like Gecko) Mobile/15E148","358","632","300","","null","<div style=""font-size:60px;"">+</div>","null","fixation","","","","","","","","","","","","",""
"html-button-response","17","22059","0.0-2.0-1.7","9005","1","pre","0","2026-02-05T07:53:52.772Z","Mozilla/5.0 (iPhone; CPU iPhone OS 18_7 like Mac OS X) AppleWebKit/605.1.15 (KHTML, like Gecko) Mobile/15E148","358","632","300","","857","<div class=""prompt"" style=""font-size:24px; margin-bottom:20px;"">Which word describes you more?</div>","1","pairing","8","delight","helpless","PosNeg","69","15","positive","negative","54","helpless","right","true",""
"html-keyboard-response","18","22863","0.0-2.0-0.8","9005","1","pre","0","2026-02-05T07:53:52.772Z","Mozilla/5.0 (iPhone; CPU iPhone OS 18_7 like Mac OS X) AppleWebKit/605.1.15 (KHTML, like Gecko) Mobile/15E148","358","632","300","","null","<div style=""font-size:60px;"">+</div>","null","fixation","","","","","","","","","","","","",""
"html-button-response","19","23476","0.0-2.0-1.8","9005","1","pre","0","2026-02-05T07:53:52.772Z","Mozilla/5.0 (iPhone; CPU iPhone OS 18_7 like Mac OS X) AppleWebKit/605.1.15 (KHTML, like Gecko) Mobile/15E148","358","632","300","","610","<div class=""prompt"" style=""font-size:24px; margin-bottom:20px;"">Which word describes you more?</div>","0","pairing","9","asset","distressed","PosNeg","69","24","positive","negative","45","asset","left","true",""
"html-keyboard-response","20","24278","0.0-2.0-0.9","9005","1","pre","0","2026-02-05T07:53:52.772Z","Mozilla/5.0 (iPhone; CPU iPhone OS 18_7 like Mac OS X) AppleWebKit/605.1.15 (KHTML, like Gecko) Mobile/15E148","358","632","300","","null","<div style=""font-size:60px;"">+</div>","null","fixation","","","","","","","","","","","","",""
"html-button-response","21","24744","0.0-2.0-1.9","9005","1","pre","0","2026-02-05T07:53:52.772Z","Mozilla/5.0 (iPhone; CPU iPhone OS 18_7 like Mac OS X) AppleWebKit/605.1.15 (KHTML, like Gecko) Mobile/15E148","358","632","300","","463","<div class=""prompt"" style=""font-size:24px; margin-bottom:20px;"">Which word describes you more?</div>","1","pairing","10","loser","awful","NegNeg","15","24","negative","negative","9","awful","right","true",""
"html-keyboard-response","22","25546","0.0-2.0-0.10","9005","1","pre","0","2026-02-05T07:53:52.772Z","Mozilla/5.0 (iPhone; CPU iPhone OS 18_7 like Mac OS X) AppleWebKit/605.1.15 (KHTML, like Gecko) Mobile/15E148","358","632","300","","null","<div style=""font-size:60px;"">+</div>","null","fixation","","","","","","","","","","","","",""
"html-button-response","23","25978","0.0-2.0-1.10","9005","1","pre","0","2026-02-05T07:53:52.772Z","Mozilla/5.0 (iPhone; CPU iPhone OS 18_7 like Mac OS X) AppleWebKit/605.1.15 (KHTML, like Gecko) Mobile/15E148","358","632","300","","429","<div class=""prompt"" style=""font-size:24px; margin-bottom:20px;"">Which word describes you more?</div>","1","pairing","11","confident","spirited","PosPos","15","37","positive","positive","22","spirited","right","true",""
"html-keyboard-response","24","26782","0.0-2.0-0.11","9005","1","pre","0","2026-02-05T07:53:52.772Z","Mozilla/5.0 (iPhone; CPU iPhone OS 18_7 like Mac OS X) AppleWebKit/605.1.15 (KHTML, like Gecko) Mobile/15E148","358","632","300","","null","<div style=""font-size:60px;"">+</div>","null","fixation","","","","","","","","","","","","",""
"html-button-response","25","27176","0.0-2.0-1.11","9005","1","pre","0","2026-02-05T07:53:52.772Z","Mozilla/5.0 (iPhone; CPU iPhone OS 18_7 like Mac OS X) AppleWebKit/605.1.15 (KHTML, like Gecko) Mobile/15E148","358","632","300","","392","<div class=""prompt"" style=""font-size:24px; margin-bottom:20px;"">Which word describes you more?</div>","0","pairing","12","untrustworthy","defective","NegNeg","69","24","negative","negative","45","untrustworthy","left","true",""
"html-keyboard-response","26","27979","0.0-2.0-0.12","9005","1","pre","0","2026-02-05T07:53:52.772Z","Mozilla/5.0 (iPhone; CPU iPhone OS 18_7 like Mac OS X) AppleWebKit/605.1.15 (KHTML, like Gecko) Mobile/15E148","358","632","300","","null","<div style=""font-size:60px;"">+</div>","null","fixation","","","","","","","","","","","","",""
"html-button-response","27","28323","0.0-2.0-1.12","9005","1","pre","0","2026-02-05T07:53:52.772Z","Mozilla/5.0 (iPhone; CPU iPhone OS 18_7 like Mac OS X) AppleWebKit/605.1.15 (KHTML, like Gecko) Mobile/15E148","358","632","300","","342","<div class=""prompt"" style=""font-size:24px; margin-bottom:20px;"">Which word describes you more?</div>","0","pairing","13","loser","carefree","PosNeg","15","37","negative","positive","22","loser","left","true",""
"html-keyboard-response","28","29125","0.0-2.0-0.13","9005","1","pre","0","2026-02-05T07:53:52.772Z","Mozilla/5.0 (iPhone; CPU iPhone OS 18_7 like Mac OS X) AppleWebKit/605.1.15 (KHTML, like Gecko) Mobile/15E148","358","632","300","","null","<div style=""font-size:60px;"">+</div>","null","fixation","","","","","","","","","","","","",""
"html-button-response","29","29533","0.0-2.0-1.13","9005","1","pre","0","2026-02-05T07:53:52.772Z","Mozilla/5.0 (iPhone; CPU iPhone OS 18_7 like Mac OS X) AppleWebKit/605.1.15 (KHTML, like Gecko) Mobile/15E148","358","632","300","","405","<div class=""prompt"" style=""font-size:24px; margin-bottom:20px;"">Which word describes you more?</div>","1","pairing","14","cruel","gloomy","NegNeg","24","69","negative","negative","45","gloomy","right","true",""
"html-keyboard-response","30","30335","0.0-2.0-0.14","9005","1","pre","0","2026-02-05T07:53:52.772Z","Mozilla/5.0 (iPhone; CPU iPhone OS 18_7 like Mac OS X) AppleWebKit/605.1.15 (KHTML, like Gecko) Mobile/15E148","358","632","300","","null","<div style=""font-size:60px;"">+</div>","null","fixation","","","","","","","","","","","","",""
"html-button-response","31","30711","0.0-2.0-1.14","9005","1","pre","0","2026-02-05T07:53:52.772Z","Mozilla/5.0 (iPhone; CPU iPhone OS 18_7 like Mac OS X) AppleWebKit/605.1.15 (KHTML, like Gecko) Mobile/15E148","358","632","300","","374","<div class=""prompt"" style=""font-size:24px; margin-bottom:20px;"">Which word describes you more?</div>","1","pairing","15","admired","unique","PosPos","15","24","positive","positive","9","unique","right","true",""
"html-keyboard-response","32","31513","0.0-2.0-0.15","9005","1","pre","0","2026-02-05T07:53:52.772Z","Mozilla/5.0 (iPhone; CPU iPhone OS 18_7 like Mac OS X) AppleWebKit/605.1.15 (KHTML, like Gecko) Mobile/15E148","358","632","300","","null","<div style=""font-size:60px;"">+</div>","null","fixation","","","","","","","","","","","","",""
"html-button-response","33","31882","0.0-2.0-1.15","9005","1","pre","0","2026-02-05T07:53:52.772Z","Mozilla/5.0 (iPhone; CPU iPhone OS 18_7 like Mac OS X) AppleWebKit/605.1.15 (KHTML, like Gecko) Mobile/15E148","358","632","300","","366","<div class=""prompt"" style=""font-size:24px; margin-bottom:20px;"">Which word describes you more?</div>","0","pairing","16","healthy","failure","PosNeg","49","69","positive","negative","20","healthy","left","true",""
"html-keyboard-response","34","32685","0.0-2.0-0.16","9005","1","pre","0","2026-02-05T07:53:52.772Z","Mozilla/5.0 (iPhone; CPU iPhone OS 18_7 like Mac OS X) AppleWebKit/605.1.15 (KHTML, like Gecko) Mobile/15E148","358","632","300","","null","<div style=""font-size:60px;"">+</div>","null","fixation","","","","","","","","","","","","",""
"html-button-response","35","33084","0.0-2.0-1.16","9005","1","pre","0","2026-02-05T07:53:52.772Z","Mozilla/5.0 (iPhone; CPU iPhone OS 18_7 like Mac OS X) AppleWebKit/605.1.15 (KHTML, like Gecko) Mobile/15E148","358","632","300","","397","<div class=""prompt"" style=""font-size:24px; margin-bottom:20px;"">Which word describes you more?</div>","0","pairing","17","alone","fun","PosNeg","69","69","negative","positive","0","alone","left","true",""
"html-keyboard-response","36","33887","0.0-2.0-0.17","9005","1","pre","0","2026-02-05T07:53:52.772Z","Mozilla/5.0 (iPhone; CPU iPhone OS 18_7 like Mac OS X) AppleWebKit/605.1.15 (KHTML, like Gecko) Mobile/15E148","358","632","300","","null","<div style=""font-size:60px;"">+</div>","null","fixation","","","","","","","","","","","","",""
"html-button-response","37","34355","0.0-2.0-1.17","9005","1","pre","0","2026-02-05T07:53:52.772Z","Mozilla/5.0 (iPhone; CPU iPhone OS 18_7 like Mac OS X) AppleWebKit/605.1.15 (KHTML, like Gecko) Mobile/15E148","358","632","300","","466","<div class=""prompt"" style=""font-size:24px; margin-bottom:20px;"">Which word describes you more?</div>","1","pairing","18","deceitful","unforgivable","NegNeg","49","69","negative","negative","20","unforgivable","right","true",""
"html-keyboard-response","38","35157","0.0-2.0-0.18","9005","1","pre","0","2026-02-05T07:53:52.772Z","Mozilla/5.0 (iPhone; CPU iPhone OS 18_7 like Mac OS X) AppleWebKit/605.1.15 (KHTML, like Gecko) Mobile/15E148","358","632","300","","null","<div style=""font-size:60px;"">+</div>","null","fixation","","","","","","","","","","","","",""
"html-button-response","39","35519","0.0-2.0-1.18","9005","1","pre","0","2026-02-05T07:53:52.772Z","Mozilla/5.0 (iPhone; CPU iPhone OS 18_7 like Mac OS X) AppleWebKit/605.1.15 (KHTML, like Gecko) Mobile/15E148","358","632","300","","358","<div class=""prompt"" style=""font-size:24px; margin-bottom:20px;"">Which word describes you more?</div>","1","pairing","19","safe","tolerant","PosPos","69","24","positive","positive","45","tolerant","right","true",""
"html-keyboard-response","40","36322","0.0-2.0-0.19","9005","1","pre","0","2026-02-05T07:53:52.772Z","Mozilla/5.0 (iPhone; CPU iPhone OS 18_7 like Mac OS X) AppleWebKit/605.1.15 (KHTML, like Gecko) Mobile/15E148","358","632","300","","null","<div style=""font-size:60px;"">+</div>","null","fixation","","","","","","","","","","","","",""
"html-button-response","41","36701","0.0-2.0-1.19","9005","1","pre","0","2026-02-05T07:53:52.772Z","Mozilla/5.0 (iPhone; CPU iPhone OS 18_7 like Mac OS X) AppleWebKit/605.1.15 (KHTML, like Gecko) Mobile/15E148","358","632","300","","377","<div class=""prompt"" style=""font-size:24px; margin-bottom:20px;"">Which word describes you more?</div>","0","pairing","20","patient","champion","PosPos","69","22","positive","positive","47","patient","left","true",""
"html-keyboard-response","42","37504","0.0-2.0-0.20","9005","1","pre","0","2026-02-05T07:53:52.772Z","Mozilla/5.0 (iPhone; CPU iPhone OS 18_7 like Mac OS X) AppleWebKit/605.1.15 (KHTML, like Gecko) Mobile/15E148","358","632","300","","null","<div style=""font-size:60px;"">+</div>","null","fixation","","","","","","","","","","","","",""
"html-button-response","43","37859","0.0-2.0-1.20","9005","1","pre","0","2026-02-05T07:53:52.772Z","Mozilla/5.0 (iPhone; CPU iPhone OS 18_7 like Mac OS X) AppleWebKit/605.1.15 (KHTML, like Gecko) Mobile/15E148","358","632","300","","353","<div class=""prompt"" style=""font-size:24px; margin-bottom:20px;"">Which word describes you more?</div>","1","pairing","21","bully","courteous","PosNeg","69","24","negative","positive","45","courteous","right","true",""
"html-keyboard-response","44","38662","0.0-2.0-0.21","9005","1","pre","0","2026-02-05T07:53:52.772Z","Mozilla/5.0 (iPhone; CPU iPhone OS 18_7 like Mac OS X) AppleWebKit/605.1.15 (KHTML, like Gecko) Mobile/15E148","358","632","300","","null","<div style=""font-size:60px;"">+</div>","null","fixation","","","","","","","","","","","","",""
"html-button-response","45","39011","0.0-2.0-1.21","9005","1","pre","0","2026-02-05T07:53:52.772Z","Mozilla/5.0 (iPhone; CPU iPhone OS 18_7 like Mac OS X) AppleWebKit/605.1.15 (KHTML, like Gecko) Mobile/15E148","358","632","300","","347","<div class=""prompt"" style=""font-size:24px; margin-bottom:20px;"">Which word describes you more?</div>","1","pairing","22","disastrous","enthusiastic","PosNeg","15","69","negative","positive","54","enthusiastic","right","true",""
"html-keyboard-response","46","39813","0.0-2.0-0.22","9005","1","pre","0","2026-02-05T07:53:52.772Z","Mozilla/5.0 (iPhone; CPU iPhone OS 18_7 like Mac OS X) AppleWebKit/605.1.15 (KHTML, like Gecko) Mobile/15E148","358","632","300","","null","<div style=""font-size:60px;"">+</div>","null","fixation","","","","","","","","","","","","",""
"html-button-response","47","40229","0.0-2.0-1.22","9005","1","pre","0","2026-02-05T07:53:52.772Z","Mozilla/5.0 (iPhone; CPU iPhone OS 18_7 like Mac OS X) AppleWebKit/605.1.15 (KHTML, like Gecko) Mobile/15E148","358","632","300","","414","<div class=""prompt"" style=""font-size:24px; margin-bottom:20px;"">Which word describes you more?</div>","0","pairing","23","respectful","defective","PosNeg","49","24","positive","negative","25","respectful","left","true",""
"html-keyboard-response","48","41032","0.0-2.0-0.23","9005","1","pre","0","2026-02-05T07:53:52.772Z","Mozilla/5.0 (iPhone; CPU iPhone OS 18_7 like Mac OS X) AppleWebKit/605.1.15 (KHTML, like Gecko) Mobile/15E148","358","632","300","","null","<div style=""font-size:60px;"">+</div>","null","fixation","","","","","","","","","","","","",""
"html-button-response","49","41393","0.0-2.0-1.23","9005","1","pre","0","2026-02-05T07:53:52.772Z","Mozilla/5.0 (iPhone; CPU iPhone OS 18_7 like Mac OS X) AppleWebKit/605.1.15 (KHTML, like Gecko) Mobile/15E148","358","632","300","","359","<div class=""prompt"" style=""font-size:24px; margin-bottom:20px;"">Which word describes you more?</div>","0","pairing","24","humorous","reliable","PosPos","24","15","positive","positive","9","humorous","left","true",""
"call-function","50","41397","0.0-3.0","9005","1","pre","0","2026-02-05T07:53:52.772Z","Mozilla/5.0 (iPhone; CPU iPhone OS 18_7 like Mac OS X) AppleWebKit/605.1.15 (KHTML, like Gecko) Mobile/15E148","358","632","300","","","","","","","","","","","","","","","","","",""
"instructions","51","45266","0.0-4.0","9005","1","pre","0","2026-02-05T07:53:52.772Z","Mozilla/5.0 (iPhone; CPU iPhone OS 18_7 like Mac OS X) AppleWebKit/605.1.15 (KHTML, like Gecko) Mobile/15E148","358","632","300","[{""page_index"":0,""viewing_time"":3868}]","3868","","","","","","","","","","","","","","","",""
