"trial_type","trial_index","time_elapsed","internal_node_id","PUNS_ID","session_number","session_phase","session_day","session_slot","ema_start_date","ema_post_start_date","experiment_start","browser","screen_width","screen_height","timezone_offset","view_history","rt","stimulus","response","which_experiment_phase","trial_number","left_word","right_word","valence","left_base_rating","right_base_rating","left_valence","right_valence","abs_diff","participant_response","chosen_side","valid_response"
"pavlovia","0","2550","0.0-0.0","1027","47","post","6","afternoon","2026-03-23","2026-04-04","2026-04-10T00:08:49.935Z","Mozilla/5.0 (iPhone; CPU iPhone OS 18_6_2 like Mac OS X) AppleWebKit/605.1.15 (KHTML, like Gecko) Mobile/15E148","398","708","420","","","","","","","","","","","","","","","","",""
"instructions","1","7542","0.0-1.0","1027","47","post","6","afternoon","2026-03-23","2026-04-04","2026-04-10T00:08:49.935Z","Mozilla/5.0 (iPhone; CPU iPhone OS 18_6_2 like Mac OS X) AppleWebKit/605.1.15 (KHTML, like Gecko) Mobile/15E148","398","708","420","[{""page_index"":0,""viewing_time"":3200},{""page_index"":1,""viewing_time"":544},{""page_index"":2,""viewing_time"":608},{""page_index"":3,""viewing_time"":634}]","4987","","","","","","","","","","","","","","",""
"html-keyboard-response","2","8346","0.0-2.0-0.0","1027","47","post","6","afternoon","2026-03-23","2026-04-04","2026-04-10T00:08:49.935Z","Mozilla/5.0 (iPhone; CPU iPhone OS 18_6_2 like Mac OS X) AppleWebKit/605.1.15 (KHTML, like Gecko) Mobile/15E148","398","708","420","","null","<div style=""font-size:60px;"">+</div>","null","fixation","","","","","","","","","","","",""
"html-button-response","3","10768","0.0-2.0-1.0","1027","47","post","6","afternoon","2026-03-23","2026-04-04","2026-04-10T00:08:49.935Z","Mozilla/5.0 (iPhone; CPU iPhone OS 18_6_2 like Mac OS X) AppleWebKit/605.1.15 (KHTML, like Gecko) Mobile/15E148","398","708","420","","2417","<div class=""prompt"" style=""font-size:24px; margin-bottom:20px;"">Which word describes you more?</div>","0","pairing","1","idealistic","hesitant","PosNeg","94","24","positive","negative","70","idealistic","left","true"
"html-keyboard-response","4","11571","0.0-2.0-0.1","1027","47","post","6","afternoon","2026-03-23","2026-04-04","2026-04-10T00:08:49.935Z","Mozilla/5.0 (iPhone; CPU iPhone OS 18_6_2 like Mac OS X) AppleWebKit/605.1.15 (KHTML, like Gecko) Mobile/15E148","398","708","420","","null","<div style=""font-size:60px;"">+</div>","null","fixation","","","","","","","","","","","",""
"html-button-response","5","14151","0.0-2.0-1.1","1027","47","post","6","afternoon","2026-03-23","2026-04-04","2026-04-10T00:08:49.935Z","Mozilla/5.0 (iPhone; CPU iPhone OS 18_6_2 like Mac OS X) AppleWebKit/605.1.15 (KHTML, like Gecko) Mobile/15E148","398","708","420","","2576","<div class=""prompt"" style=""font-size:24px; margin-bottom:20px;"">Which word describes you more?</div>","0","pairing","2","healthy","alone","PosNeg","39","44","positive","negative","5","healthy","left","true"
"html-keyboard-response","6","14954","0.0-2.0-0.2","1027","47","post","6","afternoon","2026-03-23","2026-04-04","2026-04-10T00:08:49.935Z","Mozilla/5.0 (iPhone; CPU iPhone OS 18_6_2 like Mac OS X) AppleWebKit/605.1.15 (KHTML, like Gecko) Mobile/15E148","398","708","420","","null","<div style=""font-size:60px;"">+</div>","null","fixation","","","","","","","","","","","",""
"html-button-response","7","17219","0.0-2.0-1.2","1027","47","post","6","afternoon","2026-03-23","2026-04-04","2026-04-10T00:08:49.935Z","Mozilla/5.0 (iPhone; CPU iPhone OS 18_6_2 like Mac OS X) AppleWebKit/605.1.15 (KHTML, like Gecko) Mobile/15E148","398","708","420","","2263","<div class=""prompt"" style=""font-size:24px; margin-bottom:20px;"">Which word describes you more?</div>","0","pairing","3","energetic","heartbroken","PosNeg","63","48","positive","negative","15","energetic","left","true"
"html-keyboard-response","8","18021","0.0-2.0-0.3","1027","47","post","6","afternoon","2026-03-23","2026-04-04","2026-04-10T00:08:49.935Z","Mozilla/5.0 (iPhone; CPU iPhone OS 18_6_2 like Mac OS X) AppleWebKit/605.1.15 (KHTML, like Gecko) Mobile/15E148","398","708","420","","null","<div style=""font-size:60px;"">+</div>","null","fixation","","","","","","","","","","","",""
"html-button-response","9","20435","0.0-2.0-1.3","1027","47","post","6","afternoon","2026-03-23","2026-04-04","2026-04-10T00:08:49.935Z","Mozilla/5.0 (iPhone; CPU iPhone OS 18_6_2 like Mac OS X) AppleWebKit/605.1.15 (KHTML, like Gecko) Mobile/15E148","398","708","420","","2412","<div class=""prompt"" style=""font-size:24px; margin-bottom:20px;"">Which word describes you more?</div>","0","pairing","4","skilled","outcast","PosNeg","89","35","positive","negative","54","skilled","left","true"
"html-keyboard-response","10","21238","0.0-2.0-0.4","1027","47","post","6","afternoon","2026-03-23","2026-04-04","2026-04-10T00:08:49.935Z","Mozilla/5.0 (iPhone; CPU iPhone OS 18_6_2 like Mac OS X) AppleWebKit/605.1.15 (KHTML, like Gecko) Mobile/15E148","398","708","420","","null","<div style=""font-size:60px;"">+</div>","null","fixation","","","","","","","","","","","",""
"html-button-response","11","23437","0.0-2.0-1.4","1027","47","post","6","afternoon","2026-03-23","2026-04-04","2026-04-10T00:08:49.935Z","Mozilla/5.0 (iPhone; CPU iPhone OS 18_6_2 like Mac OS X) AppleWebKit/605.1.15 (KHTML, like Gecko) Mobile/15E148","398","708","420","","2198","<div class=""prompt"" style=""font-size:24px; margin-bottom:20px;"">Which word describes you more?</div>","0","pairing","5","coward","hopeless","NegNeg","40","2","negative","negative","38","coward","left","true"
"html-keyboard-response","12","24240","0.0-2.0-0.5","1027","47","post","6","afternoon","2026-03-23","2026-04-04","2026-04-10T00:08:49.935Z","Mozilla/5.0 (iPhone; CPU iPhone OS 18_6_2 like Mac OS X) AppleWebKit/605.1.15 (KHTML, like Gecko) Mobile/15E148","398","708","420","","null","<div style=""font-size:60px;"">+</div>","null","fixation","","","","","","","","","","","",""
"html-button-response","13","25921","0.0-2.0-1.5","1027","47","post","6","afternoon","2026-03-23","2026-04-04","2026-04-10T00:08:49.935Z","Mozilla/5.0 (iPhone; CPU iPhone OS 18_6_2 like Mac OS X) AppleWebKit/605.1.15 (KHTML, like Gecko) Mobile/15E148","398","708","420","","1679","<div class=""prompt"" style=""font-size:24px; margin-bottom:20px;"">Which word describes you more?</div>","0","pairing","6","companion","boring","PosNeg","91","31","positive","negative","60","companion","left","true"
"html-keyboard-response","14","26723","0.0-2.0-0.6","1027","47","post","6","afternoon","2026-03-23","2026-04-04","2026-04-10T00:08:49.935Z","Mozilla/5.0 (iPhone; CPU iPhone OS 18_6_2 like Mac OS X) AppleWebKit/605.1.15 (KHTML, like Gecko) Mobile/15E148","398","708","420","","null","<div style=""font-size:60px;"">+</div>","null","fixation","","","","","","","","","","","",""
"html-button-response","15","28238","0.0-2.0-1.6","1027","47","post","6","afternoon","2026-03-23","2026-04-04","2026-04-10T00:08:49.935Z","Mozilla/5.0 (iPhone; CPU iPhone OS 18_6_2 like Mac OS X) AppleWebKit/605.1.15 (KHTML, like Gecko) Mobile/15E148","398","708","420","","1513","<div class=""prompt"" style=""font-size:24px; margin-bottom:20px;"">Which word describes you more?</div>","0","pairing","7","idealistic","prick","PosNeg","94","3","positive","negative","91","idealistic","left","true"
"html-keyboard-response","16","29042","0.0-2.0-0.7","1027","47","post","6","afternoon","2026-03-23","2026-04-04","2026-04-10T00:08:49.935Z","Mozilla/5.0 (iPhone; CPU iPhone OS 18_6_2 like Mac OS X) AppleWebKit/605.1.15 (KHTML, like Gecko) Mobile/15E148","398","708","420","","null","<div style=""font-size:60px;"">+</div>","null","fixation","","","","","","","","","","","",""
"html-button-response","17","30380","0.0-2.0-1.7","1027","47","post","6","afternoon","2026-03-23","2026-04-04","2026-04-10T00:08:49.935Z","Mozilla/5.0 (iPhone; CPU iPhone OS 18_6_2 like Mac OS X) AppleWebKit/605.1.15 (KHTML, like Gecko) Mobile/15E148","398","708","420","","1336","<div class=""prompt"" style=""font-size:24px; margin-bottom:20px;"">Which word describes you more?</div>","1","pairing","8","flawless","playful","PosPos","23","94","positive","positive","71","playful","right","true"
"html-keyboard-response","18","31182","0.0-2.0-0.8","1027","47","post","6","afternoon","2026-03-23","2026-04-04","2026-04-10T00:08:49.935Z","Mozilla/5.0 (iPhone; CPU iPhone OS 18_6_2 like Mac OS X) AppleWebKit/605.1.15 (KHTML, like Gecko) Mobile/15E148","398","708","420","","null","<div style=""font-size:60px;"">+</div>","null","fixation","","","","","","","","","","","",""
"html-button-response","19","32945","0.0-2.0-1.8","1027","47","post","6","afternoon","2026-03-23","2026-04-04","2026-04-10T00:08:49.935Z","Mozilla/5.0 (iPhone; CPU iPhone OS 18_6_2 like Mac OS X) AppleWebKit/605.1.15 (KHTML, like Gecko) Mobile/15E148","398","708","420","","1755","<div class=""prompt"" style=""font-size:24px; margin-bottom:20px;"">Which word describes you more?</div>","0","pairing","9","defective","garbage","NegNeg","36","0","negative","negative","36","defective","left","true"
"html-keyboard-response","20","33747","0.0-2.0-0.9","1027","47","post","6","afternoon","2026-03-23","2026-04-04","2026-04-10T00:08:49.935Z","Mozilla/5.0 (iPhone; CPU iPhone OS 18_6_2 like Mac OS X) AppleWebKit/605.1.15 (KHTML, like Gecko) Mobile/15E148","398","708","420","","null","<div style=""font-size:60px;"">+</div>","null","fixation","","","","","","","","","","","",""
"html-button-response","21","36132","0.0-2.0-1.9","1027","47","post","6","afternoon","2026-03-23","2026-04-04","2026-04-10T00:08:49.935Z","Mozilla/5.0 (iPhone; CPU iPhone OS 18_6_2 like Mac OS X) AppleWebKit/605.1.15 (KHTML, like Gecko) Mobile/15E148","398","708","420","","2383","<div class=""prompt"" style=""font-size:24px; margin-bottom:20px;"">Which word describes you more?</div>","1","pairing","10","easygoing","grateful","PosPos","78","79","positive","positive","1","grateful","right","true"
"html-keyboard-response","22","36934","0.0-2.0-0.10","1027","47","post","6","afternoon","2026-03-23","2026-04-04","2026-04-10T00:08:49.935Z","Mozilla/5.0 (iPhone; CPU iPhone OS 18_6_2 like Mac OS X) AppleWebKit/605.1.15 (KHTML, like Gecko) Mobile/15E148","398","708","420","","null","<div style=""font-size:60px;"">+</div>","null","fixation","","","","","","","","","","","",""
"html-button-response","23","39175","0.0-2.0-1.10","1027","47","post","6","afternoon","2026-03-23","2026-04-04","2026-04-10T00:08:49.935Z","Mozilla/5.0 (iPhone; CPU iPhone OS 18_6_2 like Mac OS X) AppleWebKit/605.1.15 (KHTML, like Gecko) Mobile/15E148","398","708","420","","2238","<div class=""prompt"" style=""font-size:24px; margin-bottom:20px;"">Which word describes you more?</div>","1","pairing","11","traitor","playful","PosNeg","0","94","negative","positive","94","playful","right","true"
"html-keyboard-response","24","39977","0.0-2.0-0.11","1027","47","post","6","afternoon","2026-03-23","2026-04-04","2026-04-10T00:08:49.935Z","Mozilla/5.0 (iPhone; CPU iPhone OS 18_6_2 like Mac OS X) AppleWebKit/605.1.15 (KHTML, like Gecko) Mobile/15E148","398","708","420","","null","<div style=""font-size:60px;"">+</div>","null","fixation","","","","","","","","","","","",""
"html-button-response","25","43318","0.0-2.0-1.11","1027","47","post","6","afternoon","2026-03-23","2026-04-04","2026-04-10T00:08:49.935Z","Mozilla/5.0 (iPhone; CPU iPhone OS 18_6_2 like Mac OS X) AppleWebKit/605.1.15 (KHTML, like Gecko) Mobile/15E148","398","708","420","","3339","<div class=""prompt"" style=""font-size:24px; margin-bottom:20px;"">Which word describes you more?</div>","0","pairing","12","inspirational","anxious","PosNeg","81","51","positive","negative","30","inspirational","left","true"
"html-keyboard-response","26","44120","0.0-2.0-0.12","1027","47","post","6","afternoon","2026-03-23","2026-04-04","2026-04-10T00:08:49.935Z","Mozilla/5.0 (iPhone; CPU iPhone OS 18_6_2 like Mac OS X) AppleWebKit/605.1.15 (KHTML, like Gecko) Mobile/15E148","398","708","420","","null","<div style=""font-size:60px;"">+</div>","null","fixation","","","","","","","","","","","",""
"html-button-response","27","46900","0.0-2.0-1.12","1027","47","post","6","afternoon","2026-03-23","2026-04-04","2026-04-10T00:08:49.935Z","Mozilla/5.0 (iPhone; CPU iPhone OS 18_6_2 like Mac OS X) AppleWebKit/605.1.15 (KHTML, like Gecko) Mobile/15E148","398","708","420","","2778","<div class=""prompt"" style=""font-size:24px; margin-bottom:20px;"">Which word describes you more?</div>","0","pairing","13","helpless","deceitful","NegNeg","9","1","negative","negative","8","helpless","left","true"
"html-keyboard-response","28","47702","0.0-2.0-0.13","1027","47","post","6","afternoon","2026-03-23","2026-04-04","2026-04-10T00:08:49.935Z","Mozilla/5.0 (iPhone; CPU iPhone OS 18_6_2 like Mac OS X) AppleWebKit/605.1.15 (KHTML, like Gecko) Mobile/15E148","398","708","420","","null","<div style=""font-size:60px;"">+</div>","null","fixation","","","","","","","","","","","",""
"html-button-response","29","50361","0.0-2.0-1.13","1027","47","post","6","afternoon","2026-03-23","2026-04-04","2026-04-10T00:08:49.935Z","Mozilla/5.0 (iPhone; CPU iPhone OS 18_6_2 like Mac OS X) AppleWebKit/605.1.15 (KHTML, like Gecko) Mobile/15E148","398","708","420","","2656","<div class=""prompt"" style=""font-size:24px; margin-bottom:20px;"">Which word describes you more?</div>","1","pairing","14","irritating","selfish","NegNeg","5","13","negative","negative","8","selfish","right","true"
"html-keyboard-response","30","51163","0.0-2.0-0.14","1027","47","post","6","afternoon","2026-03-23","2026-04-04","2026-04-10T00:08:49.935Z","Mozilla/5.0 (iPhone; CPU iPhone OS 18_6_2 like Mac OS X) AppleWebKit/605.1.15 (KHTML, like Gecko) Mobile/15E148","398","708","420","","null","<div style=""font-size:60px;"">+</div>","null","fixation","","","","","","","","","","","",""
"html-button-response","31","52728","0.0-2.0-1.14","1027","47","post","6","afternoon","2026-03-23","2026-04-04","2026-04-10T00:08:49.935Z","Mozilla/5.0 (iPhone; CPU iPhone OS 18_6_2 like Mac OS X) AppleWebKit/605.1.15 (KHTML, like Gecko) Mobile/15E148","398","708","420","","1562","<div class=""prompt"" style=""font-size:24px; margin-bottom:20px;"">Which word describes you more?</div>","1","pairing","15","menace","awkward","NegNeg","20","51","negative","negative","31","awkward","right","true"
"html-keyboard-response","32","53530","0.0-2.0-0.15","1027","47","post","6","afternoon","2026-03-23","2026-04-04","2026-04-10T00:08:49.935Z","Mozilla/5.0 (iPhone; CPU iPhone OS 18_6_2 like Mac OS X) AppleWebKit/605.1.15 (KHTML, like Gecko) Mobile/15E148","398","708","420","","null","<div style=""font-size:60px;"">+</div>","null","fixation","","","","","","","","","","","",""
"html-button-response","33","55162","0.0-2.0-1.15","1027","47","post","6","afternoon","2026-03-23","2026-04-04","2026-04-10T00:08:49.935Z","Mozilla/5.0 (iPhone; CPU iPhone OS 18_6_2 like Mac OS X) AppleWebKit/605.1.15 (KHTML, like Gecko) Mobile/15E148","398","708","420","","1630","<div class=""prompt"" style=""font-size:24px; margin-bottom:20px;"">Which word describes you more?</div>","1","pairing","16","regretful","legendary","PosNeg","31","57","negative","positive","26","legendary","right","true"
"html-keyboard-response","34","55964","0.0-2.0-0.16","1027","47","post","6","afternoon","2026-03-23","2026-04-04","2026-04-10T00:08:49.935Z","Mozilla/5.0 (iPhone; CPU iPhone OS 18_6_2 like Mac OS X) AppleWebKit/605.1.15 (KHTML, like Gecko) Mobile/15E148","398","708","420","","null","<div style=""font-size:60px;"">+</div>","null","fixation","","","","","","","","","","","",""
"html-button-response","35","57786","0.0-2.0-1.16","1027","47","post","6","afternoon","2026-03-23","2026-04-04","2026-04-10T00:08:49.935Z","Mozilla/5.0 (iPhone; CPU iPhone OS 18_6_2 like Mac OS X) AppleWebKit/605.1.15 (KHTML, like Gecko) Mobile/15E148","398","708","420","","1820","<div class=""prompt"" style=""font-size:24px; margin-bottom:20px;"">Which word describes you more?</div>","0","pairing","17","patient","healthy","PosPos","90","39","positive","positive","51","patient","left","true"
"html-keyboard-response","36","58589","0.0-2.0-0.17","1027","47","post","6","afternoon","2026-03-23","2026-04-04","2026-04-10T00:08:49.935Z","Mozilla/5.0 (iPhone; CPU iPhone OS 18_6_2 like Mac OS X) AppleWebKit/605.1.15 (KHTML, like Gecko) Mobile/15E148","398","708","420","","null","<div style=""font-size:60px;"">+</div>","null","fixation","","","","","","","","","","","",""
"html-button-response","37","60395","0.0-2.0-1.17","1027","47","post","6","afternoon","2026-03-23","2026-04-04","2026-04-10T00:08:49.935Z","Mozilla/5.0 (iPhone; CPU iPhone OS 18_6_2 like Mac OS X) AppleWebKit/605.1.15 (KHTML, like Gecko) Mobile/15E148","398","708","420","","1805","<div class=""prompt"" style=""font-size:24px; margin-bottom:20px;"">Which word describes you more?</div>","0","pairing","18","authentic","flawless","PosPos","92","23","positive","positive","69","authentic","left","true"
"html-keyboard-response","38","61197","0.0-2.0-0.18","1027","47","post","6","afternoon","2026-03-23","2026-04-04","2026-04-10T00:08:49.935Z","Mozilla/5.0 (iPhone; CPU iPhone OS 18_6_2 like Mac OS X) AppleWebKit/605.1.15 (KHTML, like Gecko) Mobile/15E148","398","708","420","","null","<div style=""font-size:60px;"">+</div>","null","fixation","","","","","","","","","","","",""
"html-button-response","39","63263","0.0-2.0-1.18","1027","47","post","6","afternoon","2026-03-23","2026-04-04","2026-04-10T00:08:49.935Z","Mozilla/5.0 (iPhone; CPU iPhone OS 18_6_2 like Mac OS X) AppleWebKit/605.1.15 (KHTML, like Gecko) Mobile/15E148","398","708","420","","2064","<div class=""prompt"" style=""font-size:24px; margin-bottom:20px;"">Which word describes you more?</div>","1","pairing","19","repulsive","spontaneous","PosNeg","0","70","negative","positive","70","spontaneous","right","true"
"html-keyboard-response","40","64065","0.0-2.0-0.19","1027","47","post","6","afternoon","2026-03-23","2026-04-04","2026-04-10T00:08:49.935Z","Mozilla/5.0 (iPhone; CPU iPhone OS 18_6_2 like Mac OS X) AppleWebKit/605.1.15 (KHTML, like Gecko) Mobile/15E148","398","708","420","","null","<div style=""font-size:60px;"">+</div>","null","fixation","","","","","","","","","","","",""
"html-button-response","41","65613","0.0-2.0-1.19","1027","47","post","6","afternoon","2026-03-23","2026-04-04","2026-04-10T00:08:49.935Z","Mozilla/5.0 (iPhone; CPU iPhone OS 18_6_2 like Mac OS X) AppleWebKit/605.1.15 (KHTML, like Gecko) Mobile/15E148","398","708","420","","1547","<div class=""prompt"" style=""font-size:24px; margin-bottom:20px;"">Which word describes you more?</div>","1","pairing","20","flawless","unique","PosPos","23","70","positive","positive","47","unique","right","true"
"html-keyboard-response","42","66415","0.0-2.0-0.20","1027","47","post","6","afternoon","2026-03-23","2026-04-04","2026-04-10T00:08:49.935Z","Mozilla/5.0 (iPhone; CPU iPhone OS 18_6_2 like Mac OS X) AppleWebKit/605.1.15 (KHTML, like Gecko) Mobile/15E148","398","708","420","","null","<div style=""font-size:60px;"">+</div>","null","fixation","","","","","","","","","","","",""
"html-button-response","43","67931","0.0-2.0-1.20","1027","47","post","6","afternoon","2026-03-23","2026-04-04","2026-04-10T00:08:49.935Z","Mozilla/5.0 (iPhone; CPU iPhone OS 18_6_2 like Mac OS X) AppleWebKit/605.1.15 (KHTML, like Gecko) Mobile/15E148","398","708","420","","1514","<div class=""prompt"" style=""font-size:24px; margin-bottom:20px;"">Which word describes you more?</div>","1","pairing","21","traitor","spectacular","PosNeg","0","66","negative","positive","66","spectacular","right","true"
"html-keyboard-response","44","68732","0.0-2.0-0.21","1027","47","post","6","afternoon","2026-03-23","2026-04-04","2026-04-10T00:08:49.935Z","Mozilla/5.0 (iPhone; CPU iPhone OS 18_6_2 like Mac OS X) AppleWebKit/605.1.15 (KHTML, like Gecko) Mobile/15E148","398","708","420","","null","<div style=""font-size:60px;"">+</div>","null","fixation","","","","","","","","","","","",""
"html-button-response","45","71632","0.0-2.0-1.21","1027","47","post","6","afternoon","2026-03-23","2026-04-04","2026-04-10T00:08:49.935Z","Mozilla/5.0 (iPhone; CPU iPhone OS 18_6_2 like Mac OS X) AppleWebKit/605.1.15 (KHTML, like Gecko) Mobile/15E148","398","708","420","","2898","<div class=""prompt"" style=""font-size:24px; margin-bottom:20px;"">Which word describes you more?</div>","1","pairing","22","hopeless","alone","NegNeg","2","44","negative","negative","42","alone","right","true"
"html-keyboard-response","46","72434","0.0-2.0-0.22","1027","47","post","6","afternoon","2026-03-23","2026-04-04","2026-04-10T00:08:49.935Z","Mozilla/5.0 (iPhone; CPU iPhone OS 18_6_2 like Mac OS X) AppleWebKit/605.1.15 (KHTML, like Gecko) Mobile/15E148","398","708","420","","null","<div style=""font-size:60px;"">+</div>","null","fixation","","","","","","","","","","","",""
"html-button-response","47","74691","0.0-2.0-1.22","1027","47","post","6","afternoon","2026-03-23","2026-04-04","2026-04-10T00:08:49.935Z","Mozilla/5.0 (iPhone; CPU iPhone OS 18_6_2 like Mac OS X) AppleWebKit/605.1.15 (KHTML, like Gecko) Mobile/15E148","398","708","420","","2255","<div class=""prompt"" style=""font-size:24px; margin-bottom:20px;"">Which word describes you more?</div>","1","pairing","23","slob","carefree","PosNeg","58","48","negative","positive","10","carefree","right","true"
"html-keyboard-response","48","75492","0.0-2.0-0.23","1027","47","post","6","afternoon","2026-03-23","2026-04-04","2026-04-10T00:08:49.935Z","Mozilla/5.0 (iPhone; CPU iPhone OS 18_6_2 like Mac OS X) AppleWebKit/605.1.15 (KHTML, like Gecko) Mobile/15E148","398","708","420","","null","<div style=""font-size:60px;"">+</div>","null","fixation","","","","","","","","","","","",""
"html-button-response","49","78662","0.0-2.0-1.23","1027","47","post","6","afternoon","2026-03-23","2026-04-04","2026-04-10T00:08:49.935Z","Mozilla/5.0 (iPhone; CPU iPhone OS 18_6_2 like Mac OS X) AppleWebKit/605.1.15 (KHTML, like Gecko) Mobile/15E148","398","708","420","","3168","<div class=""prompt"" style=""font-size:24px; margin-bottom:20px;"">Which word describes you more?</div>","0","pairing","24","witty","admired","PosPos","89","84","positive","positive","5","witty","left","true"
"instructions","50","79596","0.0-3.0","1027","47","post","6","afternoon","2026-03-23","2026-04-04","2026-04-10T00:08:49.935Z","Mozilla/5.0 (iPhone; CPU iPhone OS 18_6_2 like Mac OS X) AppleWebKit/605.1.15 (KHTML, like Gecko) Mobile/15E148","398","708","420","[{""page_index"":0,""viewing_time"":933}]","933","","","","","","","","","","","","","","",""
