"trial_type","trial_index","time_elapsed","internal_node_id","PUNS_ID","session_number","session_phase","session_day","session_slot","ema_start_date","ema_post_start_date","experiment_start","browser","screen_width","screen_height","timezone_offset","view_history","rt","stimulus","response","which_experiment_phase","trial_number","left_word","right_word","valence","left_base_rating","right_base_rating","left_valence","right_valence","abs_diff","participant_response","chosen_side","valid_response"
"pavlovia","0","1371","0.0-0.0","1096","58","post","10","morning","2026-05-13","2026-05-25","2026-06-03T13:27:44.468Z","Mozilla/5.0 (Linux; Android 15; motorola razr 2023 Build/V1TVS35H.41-24-3-12-3-1; wv) AppleWebKit/537.36 (KHTML, like Gecko) Version/4.0 Chrome/148.0.7778.178 Mobile Safari/537.36","379","796","240","","","","","","","","","","","","","","","","",""
"instructions","1","5029","0.0-1.0","1096","58","post","10","morning","2026-05-13","2026-05-25","2026-06-03T13:27:44.468Z","Mozilla/5.0 (Linux; Android 15; motorola razr 2023 Build/V1TVS35H.41-24-3-12-3-1; wv) AppleWebKit/537.36 (KHTML, like Gecko) Version/4.0 Chrome/148.0.7778.178 Mobile Safari/537.36","379","796","240","[{""page_index"":0,""viewing_time"":1308},{""page_index"":1,""viewing_time"":764},{""page_index"":2,""viewing_time"":792},{""page_index"":3,""viewing_time"":787}]","3653","","","","","","","","","","","","","","",""
"html-keyboard-response","2","5835","0.0-2.0-0.0","1096","58","post","10","morning","2026-05-13","2026-05-25","2026-06-03T13:27:44.468Z","Mozilla/5.0 (Linux; Android 15; motorola razr 2023 Build/V1TVS35H.41-24-3-12-3-1; wv) AppleWebKit/537.36 (KHTML, like Gecko) Version/4.0 Chrome/148.0.7778.178 Mobile Safari/537.36","379","796","240","","null","<div style=""font-size:60px;"">+</div>","null","fixation","","","","","","","","","","","",""
"html-button-response","3","9121","0.0-2.0-1.0","1096","58","post","10","morning","2026-05-13","2026-05-25","2026-06-03T13:27:44.468Z","Mozilla/5.0 (Linux; Android 15; motorola razr 2023 Build/V1TVS35H.41-24-3-12-3-1; wv) AppleWebKit/537.36 (KHTML, like Gecko) Version/4.0 Chrome/148.0.7778.178 Mobile Safari/537.36","379","796","240","","3276","<div class=""prompt"" style=""font-size:24px; margin-bottom:20px;"">Which word describes you more?</div>","0","pairing","1","coward","helpless","NegNeg","6","3","negative","negative","3","coward","left","true"
"html-keyboard-response","4","9925","0.0-2.0-0.1","1096","58","post","10","morning","2026-05-13","2026-05-25","2026-06-03T13:27:44.468Z","Mozilla/5.0 (Linux; Android 15; motorola razr 2023 Build/V1TVS35H.41-24-3-12-3-1; wv) AppleWebKit/537.36 (KHTML, like Gecko) Version/4.0 Chrome/148.0.7778.178 Mobile Safari/537.36","379","796","240","","null","<div style=""font-size:60px;"">+</div>","null","fixation","","","","","","","","","","","",""
"html-button-response","5","11240","0.0-2.0-1.1","1096","58","post","10","morning","2026-05-13","2026-05-25","2026-06-03T13:27:44.468Z","Mozilla/5.0 (Linux; Android 15; motorola razr 2023 Build/V1TVS35H.41-24-3-12-3-1; wv) AppleWebKit/537.36 (KHTML, like Gecko) Version/4.0 Chrome/148.0.7778.178 Mobile Safari/537.36","379","796","240","","1311","<div class=""prompt"" style=""font-size:24px; margin-bottom:20px;"">Which word describes you more?</div>","0","pairing","2","carefree","sadistic","PosNeg","8","76","positive","negative","68","carefree","left","true"
"html-keyboard-response","6","12042","0.0-2.0-0.2","1096","58","post","10","morning","2026-05-13","2026-05-25","2026-06-03T13:27:44.468Z","Mozilla/5.0 (Linux; Android 15; motorola razr 2023 Build/V1TVS35H.41-24-3-12-3-1; wv) AppleWebKit/537.36 (KHTML, like Gecko) Version/4.0 Chrome/148.0.7778.178 Mobile Safari/537.36","379","796","240","","null","<div style=""font-size:60px;"">+</div>","null","fixation","","","","","","","","","","","",""
"html-button-response","7","13162","0.0-2.0-1.2","1096","58","post","10","morning","2026-05-13","2026-05-25","2026-06-03T13:27:44.468Z","Mozilla/5.0 (Linux; Android 15; motorola razr 2023 Build/V1TVS35H.41-24-3-12-3-1; wv) AppleWebKit/537.36 (KHTML, like Gecko) Version/4.0 Chrome/148.0.7778.178 Mobile Safari/537.36","379","796","240","","1114","<div class=""prompt"" style=""font-size:24px; margin-bottom:20px;"">Which word describes you more?</div>","1","pairing","3","defective","playful","PosNeg","1","89","negative","positive","88","playful","right","true"
"html-keyboard-response","8","13965","0.0-2.0-0.3","1096","58","post","10","morning","2026-05-13","2026-05-25","2026-06-03T13:27:44.468Z","Mozilla/5.0 (Linux; Android 15; motorola razr 2023 Build/V1TVS35H.41-24-3-12-3-1; wv) AppleWebKit/537.36 (KHTML, like Gecko) Version/4.0 Chrome/148.0.7778.178 Mobile Safari/537.36","379","796","240","","null","<div style=""font-size:60px;"">+</div>","null","fixation","","","","","","","","","","","",""
"html-button-response","9","16153","0.0-2.0-1.3","1096","58","post","10","morning","2026-05-13","2026-05-25","2026-06-03T13:27:44.468Z","Mozilla/5.0 (Linux; Android 15; motorola razr 2023 Build/V1TVS35H.41-24-3-12-3-1; wv) AppleWebKit/537.36 (KHTML, like Gecko) Version/4.0 Chrome/148.0.7778.178 Mobile Safari/537.36","379","796","240","","2181","<div class=""prompt"" style=""font-size:24px; margin-bottom:20px;"">Which word describes you more?</div>","1","pairing","4","selfish","attractive","PosNeg","51","78","negative","positive","27","attractive","right","true"
"html-keyboard-response","10","16957","0.0-2.0-0.4","1096","58","post","10","morning","2026-05-13","2026-05-25","2026-06-03T13:27:44.468Z","Mozilla/5.0 (Linux; Android 15; motorola razr 2023 Build/V1TVS35H.41-24-3-12-3-1; wv) AppleWebKit/537.36 (KHTML, like Gecko) Version/4.0 Chrome/148.0.7778.178 Mobile Safari/537.36","379","796","240","","null","<div style=""font-size:60px;"">+</div>","null","fixation","","","","","","","","","","","",""
"html-button-response","11","19648","0.0-2.0-1.4","1096","58","post","10","morning","2026-05-13","2026-05-25","2026-06-03T13:27:44.468Z","Mozilla/5.0 (Linux; Android 15; motorola razr 2023 Build/V1TVS35H.41-24-3-12-3-1; wv) AppleWebKit/537.36 (KHTML, like Gecko) Version/4.0 Chrome/148.0.7778.178 Mobile Safari/537.36","379","796","240","","2686","<div class=""prompt"" style=""font-size:24px; margin-bottom:20px;"">Which word describes you more?</div>","1","pairing","5","distressed","sadistic","NegNeg","6","76","negative","negative","70","sadistic","right","true"
"html-keyboard-response","12","20449","0.0-2.0-0.5","1096","58","post","10","morning","2026-05-13","2026-05-25","2026-06-03T13:27:44.468Z","Mozilla/5.0 (Linux; Android 15; motorola razr 2023 Build/V1TVS35H.41-24-3-12-3-1; wv) AppleWebKit/537.36 (KHTML, like Gecko) Version/4.0 Chrome/148.0.7778.178 Mobile Safari/537.36","379","796","240","","null","<div style=""font-size:60px;"">+</div>","null","fixation","","","","","","","","","","","",""
"html-button-response","13","21731","0.0-2.0-1.5","1096","58","post","10","morning","2026-05-13","2026-05-25","2026-06-03T13:27:44.468Z","Mozilla/5.0 (Linux; Android 15; motorola razr 2023 Build/V1TVS35H.41-24-3-12-3-1; wv) AppleWebKit/537.36 (KHTML, like Gecko) Version/4.0 Chrome/148.0.7778.178 Mobile Safari/537.36","379","796","240","","1278","<div class=""prompt"" style=""font-size:24px; margin-bottom:20px;"">Which word describes you more?</div>","0","pairing","6","sadistic","unforgivable","NegNeg","76","0","negative","negative","76","sadistic","left","true"
"html-keyboard-response","14","22534","0.0-2.0-0.6","1096","58","post","10","morning","2026-05-13","2026-05-25","2026-06-03T13:27:44.468Z","Mozilla/5.0 (Linux; Android 15; motorola razr 2023 Build/V1TVS35H.41-24-3-12-3-1; wv) AppleWebKit/537.36 (KHTML, like Gecko) Version/4.0 Chrome/148.0.7778.178 Mobile Safari/537.36","379","796","240","","null","<div style=""font-size:60px;"">+</div>","null","fixation","","","","","","","","","","","",""
"html-button-response","15","23926","0.0-2.0-1.6","1096","58","post","10","morning","2026-05-13","2026-05-25","2026-06-03T13:27:44.468Z","Mozilla/5.0 (Linux; Android 15; motorola razr 2023 Build/V1TVS35H.41-24-3-12-3-1; wv) AppleWebKit/537.36 (KHTML, like Gecko) Version/4.0 Chrome/148.0.7778.178 Mobile Safari/537.36","379","796","240","","1388","<div class=""prompt"" style=""font-size:24px; margin-bottom:20px;"">Which word describes you more?</div>","0","pairing","7","decisive","vermin","PosNeg","28","3","positive","negative","25","decisive","left","true"
"html-keyboard-response","16","24728","0.0-2.0-0.7","1096","58","post","10","morning","2026-05-13","2026-05-25","2026-06-03T13:27:44.468Z","Mozilla/5.0 (Linux; Android 15; motorola razr 2023 Build/V1TVS35H.41-24-3-12-3-1; wv) AppleWebKit/537.36 (KHTML, like Gecko) Version/4.0 Chrome/148.0.7778.178 Mobile Safari/537.36","379","796","240","","null","<div style=""font-size:60px;"">+</div>","null","fixation","","","","","","","","","","","",""
"html-button-response","17","26164","0.0-2.0-1.7","1096","58","post","10","morning","2026-05-13","2026-05-25","2026-06-03T13:27:44.468Z","Mozilla/5.0 (Linux; Android 15; motorola razr 2023 Build/V1TVS35H.41-24-3-12-3-1; wv) AppleWebKit/537.36 (KHTML, like Gecko) Version/4.0 Chrome/148.0.7778.178 Mobile Safari/537.36","379","796","240","","1433","<div class=""prompt"" style=""font-size:24px; margin-bottom:20px;"">Which word describes you more?</div>","0","pairing","8","smiley","healthy","PosPos","85","57","positive","positive","28","smiley","left","true"
"html-keyboard-response","18","26966","0.0-2.0-0.8","1096","58","post","10","morning","2026-05-13","2026-05-25","2026-06-03T13:27:44.468Z","Mozilla/5.0 (Linux; Android 15; motorola razr 2023 Build/V1TVS35H.41-24-3-12-3-1; wv) AppleWebKit/537.36 (KHTML, like Gecko) Version/4.0 Chrome/148.0.7778.178 Mobile Safari/537.36","379","796","240","","null","<div style=""font-size:60px;"">+</div>","null","fixation","","","","","","","","","","","",""
"html-button-response","19","28209","0.0-2.0-1.8","1096","58","post","10","morning","2026-05-13","2026-05-25","2026-06-03T13:27:44.468Z","Mozilla/5.0 (Linux; Android 15; motorola razr 2023 Build/V1TVS35H.41-24-3-12-3-1; wv) AppleWebKit/537.36 (KHTML, like Gecko) Version/4.0 Chrome/148.0.7778.178 Mobile Safari/537.36","379","796","240","","1239","<div class=""prompt"" style=""font-size:24px; margin-bottom:20px;"">Which word describes you more?</div>","0","pairing","9","prick","phony","NegNeg","50","2","negative","negative","48","prick","left","true"
"html-keyboard-response","20","29014","0.0-2.0-0.9","1096","58","post","10","morning","2026-05-13","2026-05-25","2026-06-03T13:27:44.468Z","Mozilla/5.0 (Linux; Android 15; motorola razr 2023 Build/V1TVS35H.41-24-3-12-3-1; wv) AppleWebKit/537.36 (KHTML, like Gecko) Version/4.0 Chrome/148.0.7778.178 Mobile Safari/537.36","379","796","240","","null","<div style=""font-size:60px;"">+</div>","null","fixation","","","","","","","","","","","",""
"html-button-response","21","30829","0.0-2.0-1.9","1096","58","post","10","morning","2026-05-13","2026-05-25","2026-06-03T13:27:44.468Z","Mozilla/5.0 (Linux; Android 15; motorola razr 2023 Build/V1TVS35H.41-24-3-12-3-1; wv) AppleWebKit/537.36 (KHTML, like Gecko) Version/4.0 Chrome/148.0.7778.178 Mobile Safari/537.36","379","796","240","","1812","<div class=""prompt"" style=""font-size:24px; margin-bottom:20px;"">Which word describes you more?</div>","1","pairing","10","bully","achiever","PosNeg","68","58","negative","positive","10","achiever","right","true"
"html-keyboard-response","22","31632","0.0-2.0-0.10","1096","58","post","10","morning","2026-05-13","2026-05-25","2026-06-03T13:27:44.468Z","Mozilla/5.0 (Linux; Android 15; motorola razr 2023 Build/V1TVS35H.41-24-3-12-3-1; wv) AppleWebKit/537.36 (KHTML, like Gecko) Version/4.0 Chrome/148.0.7778.178 Mobile Safari/537.36","379","796","240","","null","<div style=""font-size:60px;"">+</div>","null","fixation","","","","","","","","","","","",""
"html-button-response","23","34045","0.0-2.0-1.10","1096","58","post","10","morning","2026-05-13","2026-05-25","2026-06-03T13:27:44.468Z","Mozilla/5.0 (Linux; Android 15; motorola razr 2023 Build/V1TVS35H.41-24-3-12-3-1; wv) AppleWebKit/537.36 (KHTML, like Gecko) Version/4.0 Chrome/148.0.7778.178 Mobile Safari/537.36","379","796","240","","2408","<div class=""prompt"" style=""font-size:24px; margin-bottom:20px;"">Which word describes you more?</div>","0","pairing","11","spontaneous","inadequate","PosNeg","21","36","positive","negative","15","spontaneous","left","true"
"html-keyboard-response","24","34848","0.0-2.0-0.11","1096","58","post","10","morning","2026-05-13","2026-05-25","2026-06-03T13:27:44.468Z","Mozilla/5.0 (Linux; Android 15; motorola razr 2023 Build/V1TVS35H.41-24-3-12-3-1; wv) AppleWebKit/537.36 (KHTML, like Gecko) Version/4.0 Chrome/148.0.7778.178 Mobile Safari/537.36","379","796","240","","null","<div style=""font-size:60px;"">+</div>","null","fixation","","","","","","","","","","","",""
"html-button-response","25","37108","0.0-2.0-1.11","1096","58","post","10","morning","2026-05-13","2026-05-25","2026-06-03T13:27:44.468Z","Mozilla/5.0 (Linux; Android 15; motorola razr 2023 Build/V1TVS35H.41-24-3-12-3-1; wv) AppleWebKit/537.36 (KHTML, like Gecko) Version/4.0 Chrome/148.0.7778.178 Mobile Safari/537.36","379","796","240","","2255","<div class=""prompt"" style=""font-size:24px; margin-bottom:20px;"">Which word describes you more?</div>","0","pairing","12","creep","patient","PosNeg","11","70","negative","positive","59","creep","left","true"
"html-keyboard-response","26","37913","0.0-2.0-0.12","1096","58","post","10","morning","2026-05-13","2026-05-25","2026-06-03T13:27:44.468Z","Mozilla/5.0 (Linux; Android 15; motorola razr 2023 Build/V1TVS35H.41-24-3-12-3-1; wv) AppleWebKit/537.36 (KHTML, like Gecko) Version/4.0 Chrome/148.0.7778.178 Mobile Safari/537.36","379","796","240","","null","<div style=""font-size:60px;"">+</div>","null","fixation","","","","","","","","","","","",""
"html-button-response","27","39927","0.0-2.0-1.12","1096","58","post","10","morning","2026-05-13","2026-05-25","2026-06-03T13:27:44.468Z","Mozilla/5.0 (Linux; Android 15; motorola razr 2023 Build/V1TVS35H.41-24-3-12-3-1; wv) AppleWebKit/537.36 (KHTML, like Gecko) Version/4.0 Chrome/148.0.7778.178 Mobile Safari/537.36","379","796","240","","2011","<div class=""prompt"" style=""font-size:24px; margin-bottom:20px;"">Which word describes you more?</div>","1","pairing","13","fun","unique","PosPos","97","98","positive","positive","1","unique","right","true"
"html-keyboard-response","28","40728","0.0-2.0-0.13","1096","58","post","10","morning","2026-05-13","2026-05-25","2026-06-03T13:27:44.468Z","Mozilla/5.0 (Linux; Android 15; motorola razr 2023 Build/V1TVS35H.41-24-3-12-3-1; wv) AppleWebKit/537.36 (KHTML, like Gecko) Version/4.0 Chrome/148.0.7778.178 Mobile Safari/537.36","379","796","240","","null","<div style=""font-size:60px;"">+</div>","null","fixation","","","","","","","","","","","",""
"html-button-response","29","42727","0.0-2.0-1.13","1096","58","post","10","morning","2026-05-13","2026-05-25","2026-06-03T13:27:44.468Z","Mozilla/5.0 (Linux; Android 15; motorola razr 2023 Build/V1TVS35H.41-24-3-12-3-1; wv) AppleWebKit/537.36 (KHTML, like Gecko) Version/4.0 Chrome/148.0.7778.178 Mobile Safari/537.36","379","796","240","","1997","<div class=""prompt"" style=""font-size:24px; margin-bottom:20px;"">Which word describes you more?</div>","1","pairing","14","violent","distressed","NegNeg","4","6","negative","negative","2","distressed","right","true"
"html-keyboard-response","30","43529","0.0-2.0-0.14","1096","58","post","10","morning","2026-05-13","2026-05-25","2026-06-03T13:27:44.468Z","Mozilla/5.0 (Linux; Android 15; motorola razr 2023 Build/V1TVS35H.41-24-3-12-3-1; wv) AppleWebKit/537.36 (KHTML, like Gecko) Version/4.0 Chrome/148.0.7778.178 Mobile Safari/537.36","379","796","240","","null","<div style=""font-size:60px;"">+</div>","null","fixation","","","","","","","","","","","",""
"html-button-response","31","45664","0.0-2.0-1.14","1096","58","post","10","morning","2026-05-13","2026-05-25","2026-06-03T13:27:44.468Z","Mozilla/5.0 (Linux; Android 15; motorola razr 2023 Build/V1TVS35H.41-24-3-12-3-1; wv) AppleWebKit/537.36 (KHTML, like Gecko) Version/4.0 Chrome/148.0.7778.178 Mobile Safari/537.36","379","796","240","","2133","<div class=""prompt"" style=""font-size:24px; margin-bottom:20px;"">Which word describes you more?</div>","1","pairing","15","terrible","irresponsible","NegNeg","1","49","negative","negative","48","irresponsible","right","true"
"html-keyboard-response","32","46466","0.0-2.0-0.15","1096","58","post","10","morning","2026-05-13","2026-05-25","2026-06-03T13:27:44.468Z","Mozilla/5.0 (Linux; Android 15; motorola razr 2023 Build/V1TVS35H.41-24-3-12-3-1; wv) AppleWebKit/537.36 (KHTML, like Gecko) Version/4.0 Chrome/148.0.7778.178 Mobile Safari/537.36","379","796","240","","null","<div style=""font-size:60px;"">+</div>","null","fixation","","","","","","","","","","","",""
"html-button-response","33","49930","0.0-2.0-1.15","1096","58","post","10","morning","2026-05-13","2026-05-25","2026-06-03T13:27:44.468Z","Mozilla/5.0 (Linux; Android 15; motorola razr 2023 Build/V1TVS35H.41-24-3-12-3-1; wv) AppleWebKit/537.36 (KHTML, like Gecko) Version/4.0 Chrome/148.0.7778.178 Mobile Safari/537.36","379","796","240","","3459","<div class=""prompt"" style=""font-size:24px; margin-bottom:20px;"">Which word describes you more?</div>","0","pairing","16","bully","carefree","PosNeg","68","8","negative","positive","60","bully","left","true"
"html-keyboard-response","34","50732","0.0-2.0-0.16","1096","58","post","10","morning","2026-05-13","2026-05-25","2026-06-03T13:27:44.468Z","Mozilla/5.0 (Linux; Android 15; motorola razr 2023 Build/V1TVS35H.41-24-3-12-3-1; wv) AppleWebKit/537.36 (KHTML, like Gecko) Version/4.0 Chrome/148.0.7778.178 Mobile Safari/537.36","379","796","240","","null","<div style=""font-size:60px;"">+</div>","null","fixation","","","","","","","","","","","",""
"html-button-response","35","51917","0.0-2.0-1.16","1096","58","post","10","morning","2026-05-13","2026-05-25","2026-06-03T13:27:44.468Z","Mozilla/5.0 (Linux; Android 15; motorola razr 2023 Build/V1TVS35H.41-24-3-12-3-1; wv) AppleWebKit/537.36 (KHTML, like Gecko) Version/4.0 Chrome/148.0.7778.178 Mobile Safari/537.36","379","796","240","","1182","<div class=""prompt"" style=""font-size:24px; margin-bottom:20px;"">Which word describes you more?</div>","0","pairing","17","tolerant","spontaneous","PosPos","96","21","positive","positive","75","tolerant","left","true"
"html-keyboard-response","36","52723","0.0-2.0-0.17","1096","58","post","10","morning","2026-05-13","2026-05-25","2026-06-03T13:27:44.468Z","Mozilla/5.0 (Linux; Android 15; motorola razr 2023 Build/V1TVS35H.41-24-3-12-3-1; wv) AppleWebKit/537.36 (KHTML, like Gecko) Version/4.0 Chrome/148.0.7778.178 Mobile Safari/537.36","379","796","240","","null","<div style=""font-size:60px;"">+</div>","null","fixation","","","","","","","","","","","",""
"html-button-response","37","54537","0.0-2.0-1.17","1096","58","post","10","morning","2026-05-13","2026-05-25","2026-06-03T13:27:44.468Z","Mozilla/5.0 (Linux; Android 15; motorola razr 2023 Build/V1TVS35H.41-24-3-12-3-1; wv) AppleWebKit/537.36 (KHTML, like Gecko) Version/4.0 Chrome/148.0.7778.178 Mobile Safari/537.36","379","796","240","","1809","<div class=""prompt"" style=""font-size:24px; margin-bottom:20px;"">Which word describes you more?</div>","1","pairing","18","devoted","prick","PosNeg","92","50","positive","negative","42","prick","right","true"
"html-keyboard-response","38","55342","0.0-2.0-0.18","1096","58","post","10","morning","2026-05-13","2026-05-25","2026-06-03T13:27:44.468Z","Mozilla/5.0 (Linux; Android 15; motorola razr 2023 Build/V1TVS35H.41-24-3-12-3-1; wv) AppleWebKit/537.36 (KHTML, like Gecko) Version/4.0 Chrome/148.0.7778.178 Mobile Safari/537.36","379","796","240","","null","<div style=""font-size:60px;"">+</div>","null","fixation","","","","","","","","","","","",""
"html-button-response","39","56814","0.0-2.0-1.18","1096","58","post","10","morning","2026-05-13","2026-05-25","2026-06-03T13:27:44.468Z","Mozilla/5.0 (Linux; Android 15; motorola razr 2023 Build/V1TVS35H.41-24-3-12-3-1; wv) AppleWebKit/537.36 (KHTML, like Gecko) Version/4.0 Chrome/148.0.7778.178 Mobile Safari/537.36","379","796","240","","1469","<div class=""prompt"" style=""font-size:24px; margin-bottom:20px;"">Which word describes you more?</div>","1","pairing","19","spontaneous","credible","PosPos","21","69","positive","positive","48","credible","right","true"
"html-keyboard-response","40","57618","0.0-2.0-0.19","1096","58","post","10","morning","2026-05-13","2026-05-25","2026-06-03T13:27:44.468Z","Mozilla/5.0 (Linux; Android 15; motorola razr 2023 Build/V1TVS35H.41-24-3-12-3-1; wv) AppleWebKit/537.36 (KHTML, like Gecko) Version/4.0 Chrome/148.0.7778.178 Mobile Safari/537.36","379","796","240","","null","<div style=""font-size:60px;"">+</div>","null","fixation","","","","","","","","","","","",""
"html-button-response","41","59079","0.0-2.0-1.19","1096","58","post","10","morning","2026-05-13","2026-05-25","2026-06-03T13:27:44.468Z","Mozilla/5.0 (Linux; Android 15; motorola razr 2023 Build/V1TVS35H.41-24-3-12-3-1; wv) AppleWebKit/537.36 (KHTML, like Gecko) Version/4.0 Chrome/148.0.7778.178 Mobile Safari/537.36","379","796","240","","1455","<div class=""prompt"" style=""font-size:24px; margin-bottom:20px;"">Which word describes you more?</div>","1","pairing","20","decisive","tolerant","PosPos","28","96","positive","positive","68","tolerant","right","true"
"html-keyboard-response","42","59881","0.0-2.0-0.20","1096","58","post","10","morning","2026-05-13","2026-05-25","2026-06-03T13:27:44.468Z","Mozilla/5.0 (Linux; Android 15; motorola razr 2023 Build/V1TVS35H.41-24-3-12-3-1; wv) AppleWebKit/537.36 (KHTML, like Gecko) Version/4.0 Chrome/148.0.7778.178 Mobile Safari/537.36","379","796","240","","null","<div style=""font-size:60px;"">+</div>","null","fixation","","","","","","","","","","","",""
"html-button-response","43","61242","0.0-2.0-1.20","1096","58","post","10","morning","2026-05-13","2026-05-25","2026-06-03T13:27:44.468Z","Mozilla/5.0 (Linux; Android 15; motorola razr 2023 Build/V1TVS35H.41-24-3-12-3-1; wv) AppleWebKit/537.36 (KHTML, like Gecko) Version/4.0 Chrome/148.0.7778.178 Mobile Safari/537.36","379","796","240","","1357","<div class=""prompt"" style=""font-size:24px; margin-bottom:20px;"">Which word describes you more?</div>","0","pairing","21","easygoing","insecure","PosNeg","75","1","positive","negative","74","easygoing","left","true"
"html-keyboard-response","44","62044","0.0-2.0-0.21","1096","58","post","10","morning","2026-05-13","2026-05-25","2026-06-03T13:27:44.468Z","Mozilla/5.0 (Linux; Android 15; motorola razr 2023 Build/V1TVS35H.41-24-3-12-3-1; wv) AppleWebKit/537.36 (KHTML, like Gecko) Version/4.0 Chrome/148.0.7778.178 Mobile Safari/537.36","379","796","240","","null","<div style=""font-size:60px;"">+</div>","null","fixation","","","","","","","","","","","",""
"html-button-response","45","63688","0.0-2.0-1.21","1096","58","post","10","morning","2026-05-13","2026-05-25","2026-06-03T13:27:44.468Z","Mozilla/5.0 (Linux; Android 15; motorola razr 2023 Build/V1TVS35H.41-24-3-12-3-1; wv) AppleWebKit/537.36 (KHTML, like Gecko) Version/4.0 Chrome/148.0.7778.178 Mobile Safari/537.36","379","796","240","","1639","<div class=""prompt"" style=""font-size:24px; margin-bottom:20px;"">Which word describes you more?</div>","1","pairing","22","carefree","irresponsible","PosNeg","8","49","positive","negative","41","irresponsible","right","true"
"html-keyboard-response","46","64492","0.0-2.0-0.22","1096","58","post","10","morning","2026-05-13","2026-05-25","2026-06-03T13:27:44.468Z","Mozilla/5.0 (Linux; Android 15; motorola razr 2023 Build/V1TVS35H.41-24-3-12-3-1; wv) AppleWebKit/537.36 (KHTML, like Gecko) Version/4.0 Chrome/148.0.7778.178 Mobile Safari/537.36","379","796","240","","null","<div style=""font-size:60px;"">+</div>","null","fixation","","","","","","","","","","","",""
"html-button-response","47","65644","0.0-2.0-1.22","1096","58","post","10","morning","2026-05-13","2026-05-25","2026-06-03T13:27:44.468Z","Mozilla/5.0 (Linux; Android 15; motorola razr 2023 Build/V1TVS35H.41-24-3-12-3-1; wv) AppleWebKit/537.36 (KHTML, like Gecko) Version/4.0 Chrome/148.0.7778.178 Mobile Safari/537.36","379","796","240","","1151","<div class=""prompt"" style=""font-size:24px; margin-bottom:20px;"">Which word describes you more?</div>","0","pairing","23","resourceful","dull","PosNeg","86","11","positive","negative","75","resourceful","left","true"
"html-keyboard-response","48","66446","0.0-2.0-0.23","1096","58","post","10","morning","2026-05-13","2026-05-25","2026-06-03T13:27:44.468Z","Mozilla/5.0 (Linux; Android 15; motorola razr 2023 Build/V1TVS35H.41-24-3-12-3-1; wv) AppleWebKit/537.36 (KHTML, like Gecko) Version/4.0 Chrome/148.0.7778.178 Mobile Safari/537.36","379","796","240","","null","<div style=""font-size:60px;"">+</div>","null","fixation","","","","","","","","","","","",""
"html-button-response","49","67477","0.0-2.0-1.23","1096","58","post","10","morning","2026-05-13","2026-05-25","2026-06-03T13:27:44.468Z","Mozilla/5.0 (Linux; Android 15; motorola razr 2023 Build/V1TVS35H.41-24-3-12-3-1; wv) AppleWebKit/537.36 (KHTML, like Gecko) Version/4.0 Chrome/148.0.7778.178 Mobile Safari/537.36","379","796","240","","1027","<div class=""prompt"" style=""font-size:24px; margin-bottom:20px;"">Which word describes you more?</div>","0","pairing","24","companion","virtuous","PosPos","100","52","positive","positive","48","companion","left","true"
"instructions","50","68124","0.0-3.0","1096","58","post","10","morning","2026-05-13","2026-05-25","2026-06-03T13:27:44.468Z","Mozilla/5.0 (Linux; Android 15; motorola razr 2023 Build/V1TVS35H.41-24-3-12-3-1; wv) AppleWebKit/537.36 (KHTML, like Gecko) Version/4.0 Chrome/148.0.7778.178 Mobile Safari/537.36","379","796","240","[{""page_index"":0,""viewing_time"":642}]","642","","","","","","","","","","","","","","",""
