"trial_type","trial_index","time_elapsed","internal_node_id","PUNS_ID","session_number","session_phase","session_day","session_slot","ema_start_date","ema_post_start_date","experiment_start","browser","screen_width","screen_height","timezone_offset","view_history","rt","stimulus","response","which_experiment_phase","trial_number","left_word","right_word","valence","left_base_rating","right_base_rating","left_valence","right_valence","abs_diff","participant_response","chosen_side","valid_response"
"pavlovia","0","5074","0.0-0.0","1083","8","pre","3","afternoon","2026-04-15","2026-04-27","2026-04-17T21:04:21.958Z","Mozilla/5.0 (iPhone; CPU iPhone OS 18_7 like Mac OS X) AppleWebKit/605.1.15 (KHTML, like Gecko) Mobile/15E148","358","632","420","","","","","","","","","","","","","","","","",""
"instructions","1","8939","0.0-1.0","1083","8","pre","3","afternoon","2026-04-15","2026-04-27","2026-04-17T21:04:21.958Z","Mozilla/5.0 (iPhone; CPU iPhone OS 18_7 like Mac OS X) AppleWebKit/605.1.15 (KHTML, like Gecko) Mobile/15E148","358","632","420","[{""page_index"":0,""viewing_time"":1510},{""page_index"":1,""viewing_time"":695},{""page_index"":2,""viewing_time"":870},{""page_index"":3,""viewing_time"":780}]","3856","","","","","","","","","","","","","","",""
"html-keyboard-response","2","9745","0.0-2.0-0.0","1083","8","pre","3","afternoon","2026-04-15","2026-04-27","2026-04-17T21:04:21.958Z","Mozilla/5.0 (iPhone; CPU iPhone OS 18_7 like Mac OS X) AppleWebKit/605.1.15 (KHTML, like Gecko) Mobile/15E148","358","632","420","","null","<div style=""font-size:60px;"">+</div>","null","fixation","","","","","","","","","","","",""
"html-button-response","3","11436","0.0-2.0-1.0","1083","8","pre","3","afternoon","2026-04-15","2026-04-27","2026-04-17T21:04:21.958Z","Mozilla/5.0 (iPhone; CPU iPhone OS 18_7 like Mac OS X) AppleWebKit/605.1.15 (KHTML, like Gecko) Mobile/15E148","358","632","420","","1685","<div class=""prompt"" style=""font-size:24px; margin-bottom:20px;"">Which word describes you more?</div>","0","pairing","1","selfish","unpleasant","NegNeg","15","0","negative","negative","15","selfish","left","true"
"html-keyboard-response","4","12238","0.0-2.0-0.1","1083","8","pre","3","afternoon","2026-04-15","2026-04-27","2026-04-17T21:04:21.958Z","Mozilla/5.0 (iPhone; CPU iPhone OS 18_7 like Mac OS X) AppleWebKit/605.1.15 (KHTML, like Gecko) Mobile/15E148","358","632","420","","null","<div style=""font-size:60px;"">+</div>","null","fixation","","","","","","","","","","","",""
"html-button-response","5","13787","0.0-2.0-1.1","1083","8","pre","3","afternoon","2026-04-15","2026-04-27","2026-04-17T21:04:21.958Z","Mozilla/5.0 (iPhone; CPU iPhone OS 18_7 like Mac OS X) AppleWebKit/605.1.15 (KHTML, like Gecko) Mobile/15E148","358","632","420","","1546","<div class=""prompt"" style=""font-size:24px; margin-bottom:20px;"">Which word describes you more?</div>","1","pairing","2","rude","insecure","NegNeg","9","96","negative","negative","87","insecure","right","true"
"html-keyboard-response","6","14589","0.0-2.0-0.2","1083","8","pre","3","afternoon","2026-04-15","2026-04-27","2026-04-17T21:04:21.958Z","Mozilla/5.0 (iPhone; CPU iPhone OS 18_7 like Mac OS X) AppleWebKit/605.1.15 (KHTML, like Gecko) Mobile/15E148","358","632","420","","null","<div style=""font-size:60px;"">+</div>","null","fixation","","","","","","","","","","","",""
"html-button-response","7","16507","0.0-2.0-1.2","1083","8","pre","3","afternoon","2026-04-15","2026-04-27","2026-04-17T21:04:21.958Z","Mozilla/5.0 (iPhone; CPU iPhone OS 18_7 like Mac OS X) AppleWebKit/605.1.15 (KHTML, like Gecko) Mobile/15E148","358","632","420","","1916","<div class=""prompt"" style=""font-size:24px; margin-bottom:20px;"">Which word describes you more?</div>","1","pairing","3","asset","proficient","PosPos","1","58","positive","positive","57","proficient","right","true"
"html-keyboard-response","8","17310","0.0-2.0-0.3","1083","8","pre","3","afternoon","2026-04-15","2026-04-27","2026-04-17T21:04:21.958Z","Mozilla/5.0 (iPhone; CPU iPhone OS 18_7 like Mac OS X) AppleWebKit/605.1.15 (KHTML, like Gecko) Mobile/15E148","358","632","420","","null","<div style=""font-size:60px;"">+</div>","null","fixation","","","","","","","","","","","",""
"html-button-response","9","18792","0.0-2.0-1.3","1083","8","pre","3","afternoon","2026-04-15","2026-04-27","2026-04-17T21:04:21.958Z","Mozilla/5.0 (iPhone; CPU iPhone OS 18_7 like Mac OS X) AppleWebKit/605.1.15 (KHTML, like Gecko) Mobile/15E148","358","632","420","","1480","<div class=""prompt"" style=""font-size:24px; margin-bottom:20px;"">Which word describes you more?</div>","0","pairing","4","resourceful","unlucky","PosNeg","76","49","positive","negative","27","resourceful","left","true"
"html-keyboard-response","10","19595","0.0-2.0-0.4","1083","8","pre","3","afternoon","2026-04-15","2026-04-27","2026-04-17T21:04:21.958Z","Mozilla/5.0 (iPhone; CPU iPhone OS 18_7 like Mac OS X) AppleWebKit/605.1.15 (KHTML, like Gecko) Mobile/15E148","358","632","420","","null","<div style=""font-size:60px;"">+</div>","null","fixation","","","","","","","","","","","",""
"html-button-response","11","22540","0.0-2.0-1.4","1083","8","pre","3","afternoon","2026-04-15","2026-04-27","2026-04-17T21:04:21.958Z","Mozilla/5.0 (iPhone; CPU iPhone OS 18_7 like Mac OS X) AppleWebKit/605.1.15 (KHTML, like Gecko) Mobile/15E148","358","632","420","","2942","<div class=""prompt"" style=""font-size:24px; margin-bottom:20px;"">Which word describes you more?</div>","1","pairing","5","miserable","easygoing","PosNeg","5","73","negative","positive","68","easygoing","right","true"
"html-keyboard-response","12","23342","0.0-2.0-0.5","1083","8","pre","3","afternoon","2026-04-15","2026-04-27","2026-04-17T21:04:21.958Z","Mozilla/5.0 (iPhone; CPU iPhone OS 18_7 like Mac OS X) AppleWebKit/605.1.15 (KHTML, like Gecko) Mobile/15E148","358","632","420","","null","<div style=""font-size:60px;"">+</div>","null","fixation","","","","","","","","","","","",""
"html-button-response","13","24780","0.0-2.0-1.5","1083","8","pre","3","afternoon","2026-04-15","2026-04-27","2026-04-17T21:04:21.958Z","Mozilla/5.0 (iPhone; CPU iPhone OS 18_7 like Mac OS X) AppleWebKit/605.1.15 (KHTML, like Gecko) Mobile/15E148","358","632","420","","1436","<div class=""prompt"" style=""font-size:24px; margin-bottom:20px;"">Which word describes you more?</div>","1","pairing","6","asset","hesitant","PosNeg","1","84","positive","negative","83","hesitant","right","true"
"html-keyboard-response","14","25582","0.0-2.0-0.6","1083","8","pre","3","afternoon","2026-04-15","2026-04-27","2026-04-17T21:04:21.958Z","Mozilla/5.0 (iPhone; CPU iPhone OS 18_7 like Mac OS X) AppleWebKit/605.1.15 (KHTML, like Gecko) Mobile/15E148","358","632","420","","null","<div style=""font-size:60px;"">+</div>","null","fixation","","","","","","","","","","","",""
"html-button-response","15","26578","0.0-2.0-1.6","1083","8","pre","3","afternoon","2026-04-15","2026-04-27","2026-04-17T21:04:21.958Z","Mozilla/5.0 (iPhone; CPU iPhone OS 18_7 like Mac OS X) AppleWebKit/605.1.15 (KHTML, like Gecko) Mobile/15E148","358","632","420","","993","<div class=""prompt"" style=""font-size:24px; margin-bottom:20px;"">Which word describes you more?</div>","1","pairing","7","insecure","sophisticated","PosNeg","96","71","negative","positive","25","sophisticated","right","true"
"html-keyboard-response","16","27380","0.0-2.0-0.7","1083","8","pre","3","afternoon","2026-04-15","2026-04-27","2026-04-17T21:04:21.958Z","Mozilla/5.0 (iPhone; CPU iPhone OS 18_7 like Mac OS X) AppleWebKit/605.1.15 (KHTML, like Gecko) Mobile/15E148","358","632","420","","null","<div style=""font-size:60px;"">+</div>","null","fixation","","","","","","","","","","","",""
"html-button-response","17","29363","0.0-2.0-1.7","1083","8","pre","3","afternoon","2026-04-15","2026-04-27","2026-04-17T21:04:21.958Z","Mozilla/5.0 (iPhone; CPU iPhone OS 18_7 like Mac OS X) AppleWebKit/605.1.15 (KHTML, like Gecko) Mobile/15E148","358","632","420","","1979","<div class=""prompt"" style=""font-size:24px; margin-bottom:20px;"">Which word describes you more?</div>","0","pairing","8","capable","gentle","PosPos","92","50","positive","positive","42","capable","left","true"
"html-keyboard-response","18","30166","0.0-2.0-0.8","1083","8","pre","3","afternoon","2026-04-15","2026-04-27","2026-04-17T21:04:21.958Z","Mozilla/5.0 (iPhone; CPU iPhone OS 18_7 like Mac OS X) AppleWebKit/605.1.15 (KHTML, like Gecko) Mobile/15E148","358","632","420","","null","<div style=""font-size:60px;"">+</div>","null","fixation","","","","","","","","","","","",""
"html-button-response","19","31200","0.0-2.0-1.8","1083","8","pre","3","afternoon","2026-04-15","2026-04-27","2026-04-17T21:04:21.958Z","Mozilla/5.0 (iPhone; CPU iPhone OS 18_7 like Mac OS X) AppleWebKit/605.1.15 (KHTML, like Gecko) Mobile/15E148","358","632","420","","1032","<div class=""prompt"" style=""font-size:24px; margin-bottom:20px;"">Which word describes you more?</div>","0","pairing","9","cooperative","spontaneous","PosPos","99","18","positive","positive","81","cooperative","left","true"
"html-keyboard-response","20","32003","0.0-2.0-0.9","1083","8","pre","3","afternoon","2026-04-15","2026-04-27","2026-04-17T21:04:21.958Z","Mozilla/5.0 (iPhone; CPU iPhone OS 18_7 like Mac OS X) AppleWebKit/605.1.15 (KHTML, like Gecko) Mobile/15E148","358","632","420","","null","<div style=""font-size:60px;"">+</div>","null","fixation","","","","","","","","","","","",""
"html-button-response","21","32916","0.0-2.0-1.9","1083","8","pre","3","afternoon","2026-04-15","2026-04-27","2026-04-17T21:04:21.958Z","Mozilla/5.0 (iPhone; CPU iPhone OS 18_7 like Mac OS X) AppleWebKit/605.1.15 (KHTML, like Gecko) Mobile/15E148","358","632","420","","911","<div class=""prompt"" style=""font-size:24px; margin-bottom:20px;"">Which word describes you more?</div>","0","pairing","10","virtuous","boring","PosNeg","50","16","positive","negative","34","virtuous","left","true"
"html-keyboard-response","22","33719","0.0-2.0-0.10","1083","8","pre","3","afternoon","2026-04-15","2026-04-27","2026-04-17T21:04:21.958Z","Mozilla/5.0 (iPhone; CPU iPhone OS 18_7 like Mac OS X) AppleWebKit/605.1.15 (KHTML, like Gecko) Mobile/15E148","358","632","420","","null","<div style=""font-size:60px;"">+</div>","null","fixation","","","","","","","","","","","",""
"html-button-response","23","34621","0.0-2.0-1.10","1083","8","pre","3","afternoon","2026-04-15","2026-04-27","2026-04-17T21:04:21.958Z","Mozilla/5.0 (iPhone; CPU iPhone OS 18_7 like Mac OS X) AppleWebKit/605.1.15 (KHTML, like Gecko) Mobile/15E148","358","632","420","","900","<div class=""prompt"" style=""font-size:24px; margin-bottom:20px;"">Which word describes you more?</div>","0","pairing","11","attractive","hateful","PosNeg","85","6","positive","negative","79","attractive","left","true"
"html-keyboard-response","24","35427","0.0-2.0-0.11","1083","8","pre","3","afternoon","2026-04-15","2026-04-27","2026-04-17T21:04:21.958Z","Mozilla/5.0 (iPhone; CPU iPhone OS 18_7 like Mac OS X) AppleWebKit/605.1.15 (KHTML, like Gecko) Mobile/15E148","358","632","420","","null","<div style=""font-size:60px;"">+</div>","null","fixation","","","","","","","","","","","",""
"html-button-response","25","36872","0.0-2.0-1.11","1083","8","pre","3","afternoon","2026-04-15","2026-04-27","2026-04-17T21:04:21.958Z","Mozilla/5.0 (iPhone; CPU iPhone OS 18_7 like Mac OS X) AppleWebKit/605.1.15 (KHTML, like Gecko) Mobile/15E148","358","632","420","","1441","<div class=""prompt"" style=""font-size:24px; margin-bottom:20px;"">Which word describes you more?</div>","1","pairing","12","legendary","healthy","PosPos","2","87","positive","positive","85","healthy","right","true"
"html-keyboard-response","26","37675","0.0-2.0-0.12","1083","8","pre","3","afternoon","2026-04-15","2026-04-27","2026-04-17T21:04:21.958Z","Mozilla/5.0 (iPhone; CPU iPhone OS 18_7 like Mac OS X) AppleWebKit/605.1.15 (KHTML, like Gecko) Mobile/15E148","358","632","420","","null","<div style=""font-size:60px;"">+</div>","null","fixation","","","","","","","","","","","",""
"html-button-response","27","39424","0.0-2.0-1.12","1083","8","pre","3","afternoon","2026-04-15","2026-04-27","2026-04-17T21:04:21.958Z","Mozilla/5.0 (iPhone; CPU iPhone OS 18_7 like Mac OS X) AppleWebKit/605.1.15 (KHTML, like Gecko) Mobile/15E148","358","632","420","","1747","<div class=""prompt"" style=""font-size:24px; margin-bottom:20px;"">Which word describes you more?</div>","0","pairing","13","insecure","awful","NegNeg","96","4","negative","negative","92","insecure","left","true"
"html-keyboard-response","28","40227","0.0-2.0-0.13","1083","8","pre","3","afternoon","2026-04-15","2026-04-27","2026-04-17T21:04:21.958Z","Mozilla/5.0 (iPhone; CPU iPhone OS 18_7 like Mac OS X) AppleWebKit/605.1.15 (KHTML, like Gecko) Mobile/15E148","358","632","420","","null","<div style=""font-size:60px;"">+</div>","null","fixation","","","","","","","","","","","",""
"html-button-response","29","41429","0.0-2.0-1.13","1083","8","pre","3","afternoon","2026-04-15","2026-04-27","2026-04-17T21:04:21.958Z","Mozilla/5.0 (iPhone; CPU iPhone OS 18_7 like Mac OS X) AppleWebKit/605.1.15 (KHTML, like Gecko) Mobile/15E148","358","632","420","","1200","<div class=""prompt"" style=""font-size:24px; margin-bottom:20px;"">Which word describes you more?</div>","1","pairing","14","jealous","admired","PosNeg","96","29","negative","positive","67","admired","right","true"
"html-keyboard-response","30","42232","0.0-2.0-0.14","1083","8","pre","3","afternoon","2026-04-15","2026-04-27","2026-04-17T21:04:21.958Z","Mozilla/5.0 (iPhone; CPU iPhone OS 18_7 like Mac OS X) AppleWebKit/605.1.15 (KHTML, like Gecko) Mobile/15E148","358","632","420","","null","<div style=""font-size:60px;"">+</div>","null","fixation","","","","","","","","","","","",""
"html-button-response","31","43594","0.0-2.0-1.14","1083","8","pre","3","afternoon","2026-04-15","2026-04-27","2026-04-17T21:04:21.958Z","Mozilla/5.0 (iPhone; CPU iPhone OS 18_7 like Mac OS X) AppleWebKit/605.1.15 (KHTML, like Gecko) Mobile/15E148","358","632","420","","1359","<div class=""prompt"" style=""font-size:24px; margin-bottom:20px;"">Which word describes you more?</div>","0","pairing","15","hopeful","anxious","PosNeg","50","70","positive","negative","20","hopeful","left","true"
"html-keyboard-response","32","44396","0.0-2.0-0.15","1083","8","pre","3","afternoon","2026-04-15","2026-04-27","2026-04-17T21:04:21.958Z","Mozilla/5.0 (iPhone; CPU iPhone OS 18_7 like Mac OS X) AppleWebKit/605.1.15 (KHTML, like Gecko) Mobile/15E148","358","632","420","","null","<div style=""font-size:60px;"">+</div>","null","fixation","","","","","","","","","","","",""
"html-button-response","33","45930","0.0-2.0-1.15","1083","8","pre","3","afternoon","2026-04-15","2026-04-27","2026-04-17T21:04:21.958Z","Mozilla/5.0 (iPhone; CPU iPhone OS 18_7 like Mac OS X) AppleWebKit/605.1.15 (KHTML, like Gecko) Mobile/15E148","358","632","420","","1532","<div class=""prompt"" style=""font-size:24px; margin-bottom:20px;"">Which word describes you more?</div>","1","pairing","16","defective","carefree","PosNeg","38","0","negative","positive","38","carefree","right","true"
"html-keyboard-response","34","46733","0.0-2.0-0.16","1083","8","pre","3","afternoon","2026-04-15","2026-04-27","2026-04-17T21:04:21.958Z","Mozilla/5.0 (iPhone; CPU iPhone OS 18_7 like Mac OS X) AppleWebKit/605.1.15 (KHTML, like Gecko) Mobile/15E148","358","632","420","","null","<div style=""font-size:60px;"">+</div>","null","fixation","","","","","","","","","","","",""
"html-button-response","35","48438","0.0-2.0-1.16","1083","8","pre","3","afternoon","2026-04-15","2026-04-27","2026-04-17T21:04:21.958Z","Mozilla/5.0 (iPhone; CPU iPhone OS 18_7 like Mac OS X) AppleWebKit/605.1.15 (KHTML, like Gecko) Mobile/15E148","358","632","420","","1702","<div class=""prompt"" style=""font-size:24px; margin-bottom:20px;"">Which word describes you more?</div>","0","pairing","17","unlucky","helpless","NegNeg","49","0","negative","negative","49","unlucky","left","true"
"html-keyboard-response","36","49239","0.0-2.0-0.17","1083","8","pre","3","afternoon","2026-04-15","2026-04-27","2026-04-17T21:04:21.958Z","Mozilla/5.0 (iPhone; CPU iPhone OS 18_7 like Mac OS X) AppleWebKit/605.1.15 (KHTML, like Gecko) Mobile/15E148","358","632","420","","null","<div style=""font-size:60px;"">+</div>","null","fixation","","","","","","","","","","","",""
"html-button-response","37","50525","0.0-2.0-1.17","1083","8","pre","3","afternoon","2026-04-15","2026-04-27","2026-04-17T21:04:21.958Z","Mozilla/5.0 (iPhone; CPU iPhone OS 18_7 like Mac OS X) AppleWebKit/605.1.15 (KHTML, like Gecko) Mobile/15E148","358","632","420","","1284","<div class=""prompt"" style=""font-size:24px; margin-bottom:20px;"">Which word describes you more?</div>","1","pairing","18","legendary","stingy","PosNeg","2","43","positive","negative","41","stingy","right","true"
"html-keyboard-response","38","51328","0.0-2.0-0.18","1083","8","pre","3","afternoon","2026-04-15","2026-04-27","2026-04-17T21:04:21.958Z","Mozilla/5.0 (iPhone; CPU iPhone OS 18_7 like Mac OS X) AppleWebKit/605.1.15 (KHTML, like Gecko) Mobile/15E148","358","632","420","","null","<div style=""font-size:60px;"">+</div>","null","fixation","","","","","","","","","","","",""
"html-button-response","39","54009","0.0-2.0-1.18","1083","8","pre","3","afternoon","2026-04-15","2026-04-27","2026-04-17T21:04:21.958Z","Mozilla/5.0 (iPhone; CPU iPhone OS 18_7 like Mac OS X) AppleWebKit/605.1.15 (KHTML, like Gecko) Mobile/15E148","358","632","420","","2679","<div class=""prompt"" style=""font-size:24px; margin-bottom:20px;"">Which word describes you more?</div>","0","pairing","19","disastrous","menace","NegNeg","0","8","negative","negative","8","disastrous","left","true"
"html-keyboard-response","40","54812","0.0-2.0-0.19","1083","8","pre","3","afternoon","2026-04-15","2026-04-27","2026-04-17T21:04:21.958Z","Mozilla/5.0 (iPhone; CPU iPhone OS 18_7 like Mac OS X) AppleWebKit/605.1.15 (KHTML, like Gecko) Mobile/15E148","358","632","420","","null","<div style=""font-size:60px;"">+</div>","null","fixation","","","","","","","","","","","",""
"html-button-response","41","56561","0.0-2.0-1.19","1083","8","pre","3","afternoon","2026-04-15","2026-04-27","2026-04-17T21:04:21.958Z","Mozilla/5.0 (iPhone; CPU iPhone OS 18_7 like Mac OS X) AppleWebKit/605.1.15 (KHTML, like Gecko) Mobile/15E148","358","632","420","","1748","<div class=""prompt"" style=""font-size:24px; margin-bottom:20px;"">Which word describes you more?</div>","1","pairing","20","committed","companion","PosPos","68","60","positive","positive","8","companion","right","true"
"html-keyboard-response","42","57364","0.0-2.0-0.20","1083","8","pre","3","afternoon","2026-04-15","2026-04-27","2026-04-17T21:04:21.958Z","Mozilla/5.0 (iPhone; CPU iPhone OS 18_7 like Mac OS X) AppleWebKit/605.1.15 (KHTML, like Gecko) Mobile/15E148","358","632","420","","null","<div style=""font-size:60px;"">+</div>","null","fixation","","","","","","","","","","","",""
"html-button-response","43","58861","0.0-2.0-1.20","1083","8","pre","3","afternoon","2026-04-15","2026-04-27","2026-04-17T21:04:21.958Z","Mozilla/5.0 (iPhone; CPU iPhone OS 18_7 like Mac OS X) AppleWebKit/605.1.15 (KHTML, like Gecko) Mobile/15E148","358","632","420","","1496","<div class=""prompt"" style=""font-size:24px; margin-bottom:20px;"">Which word describes you more?</div>","1","pairing","21","inadequate","tolerant","PosNeg","0","60","negative","positive","60","tolerant","right","true"
"html-keyboard-response","44","59664","0.0-2.0-0.21","1083","8","pre","3","afternoon","2026-04-15","2026-04-27","2026-04-17T21:04:21.958Z","Mozilla/5.0 (iPhone; CPU iPhone OS 18_7 like Mac OS X) AppleWebKit/605.1.15 (KHTML, like Gecko) Mobile/15E148","358","632","420","","null","<div style=""font-size:60px;"">+</div>","null","fixation","","","","","","","","","","","",""
"html-button-response","45","61379","0.0-2.0-1.21","1083","8","pre","3","afternoon","2026-04-15","2026-04-27","2026-04-17T21:04:21.958Z","Mozilla/5.0 (iPhone; CPU iPhone OS 18_7 like Mac OS X) AppleWebKit/605.1.15 (KHTML, like Gecko) Mobile/15E148","358","632","420","","1713","<div class=""prompt"" style=""font-size:24px; margin-bottom:20px;"">Which word describes you more?</div>","1","pairing","22","hateful","sloppy","NegNeg","6","43","negative","negative","37","sloppy","right","true"
"html-keyboard-response","46","62181","0.0-2.0-0.22","1083","8","pre","3","afternoon","2026-04-15","2026-04-27","2026-04-17T21:04:21.958Z","Mozilla/5.0 (iPhone; CPU iPhone OS 18_7 like Mac OS X) AppleWebKit/605.1.15 (KHTML, like Gecko) Mobile/15E148","358","632","420","","null","<div style=""font-size:60px;"">+</div>","null","fixation","","","","","","","","","","","",""
"html-button-response","47","64050","0.0-2.0-1.22","1083","8","pre","3","afternoon","2026-04-15","2026-04-27","2026-04-17T21:04:21.958Z","Mozilla/5.0 (iPhone; CPU iPhone OS 18_7 like Mac OS X) AppleWebKit/605.1.15 (KHTML, like Gecko) Mobile/15E148","358","632","420","","1867","<div class=""prompt"" style=""font-size:24px; margin-bottom:20px;"">Which word describes you more?</div>","1","pairing","23","miserable","graceful","PosNeg","5","32","negative","positive","27","graceful","right","true"
"html-keyboard-response","48","64853","0.0-2.0-0.23","1083","8","pre","3","afternoon","2026-04-15","2026-04-27","2026-04-17T21:04:21.958Z","Mozilla/5.0 (iPhone; CPU iPhone OS 18_7 like Mac OS X) AppleWebKit/605.1.15 (KHTML, like Gecko) Mobile/15E148","358","632","420","","null","<div style=""font-size:60px;"">+</div>","null","fixation","","","","","","","","","","","",""
"html-button-response","49","67547","0.0-2.0-1.23","1083","8","pre","3","afternoon","2026-04-15","2026-04-27","2026-04-17T21:04:21.958Z","Mozilla/5.0 (iPhone; CPU iPhone OS 18_7 like Mac OS X) AppleWebKit/605.1.15 (KHTML, like Gecko) Mobile/15E148","358","632","420","","2691","<div class=""prompt"" style=""font-size:24px; margin-bottom:20px;"">Which word describes you more?</div>","0","pairing","24","idealistic","delight","PosPos","28","58","positive","positive","30","idealistic","left","true"
"instructions","50","69763","0.0-3.0","1083","8","pre","3","afternoon","2026-04-15","2026-04-27","2026-04-17T21:04:21.958Z","Mozilla/5.0 (iPhone; CPU iPhone OS 18_7 like Mac OS X) AppleWebKit/605.1.15 (KHTML, like Gecko) Mobile/15E148","358","632","420","[{""page_index"":0,""viewing_time"":2214}]","2215","","","","","","","","","","","","","","",""
