"trial_type","trial_index","time_elapsed","internal_node_id","PUNS_ID","session_number","session_phase","session_day","session_slot","ema_start_date","ema_post_start_date","experiment_start","browser","screen_width","screen_height","timezone_offset","view_history","rt","stimulus","response","which_experiment_phase","trial_number","left_word","right_word","valence","left_base_rating","right_base_rating","left_valence","right_valence","abs_diff","participant_response","chosen_side","valid_response"
"pavlovia","0","1306","0.0-0.0","1096","59","post","10","afternoon","2026-05-13","2026-05-25","2026-06-03T18:14:07.506Z","Mozilla/5.0 (Linux; Android 15; motorola razr 2023 Build/V1TVS35H.41-24-3-12-3-1; wv) AppleWebKit/537.36 (KHTML, like Gecko) Version/4.0 Chrome/148.0.7778.178 Mobile Safari/537.36","379","796","240","","","","","","","","","","","","","","","","",""
"instructions","1","6000","0.0-1.0","1096","59","post","10","afternoon","2026-05-13","2026-05-25","2026-06-03T18:14:07.506Z","Mozilla/5.0 (Linux; Android 15; motorola razr 2023 Build/V1TVS35H.41-24-3-12-3-1; wv) AppleWebKit/537.36 (KHTML, like Gecko) Version/4.0 Chrome/148.0.7778.178 Mobile Safari/537.36","379","796","240","[{""page_index"":0,""viewing_time"":1005},{""page_index"":1,""viewing_time"":2113},{""page_index"":2,""viewing_time"":949},{""page_index"":3,""viewing_time"":618}]","4691","","","","","","","","","","","","","","",""
"html-keyboard-response","2","6805","0.0-2.0-0.0","1096","59","post","10","afternoon","2026-05-13","2026-05-25","2026-06-03T18:14:07.506Z","Mozilla/5.0 (Linux; Android 15; motorola razr 2023 Build/V1TVS35H.41-24-3-12-3-1; wv) AppleWebKit/537.36 (KHTML, like Gecko) Version/4.0 Chrome/148.0.7778.178 Mobile Safari/537.36","379","796","240","","null","<div style=""font-size:60px;"">+</div>","null","fixation","","","","","","","","","","","",""
"html-button-response","3","9028","0.0-2.0-1.0","1096","59","post","10","afternoon","2026-05-13","2026-05-25","2026-06-03T18:14:07.506Z","Mozilla/5.0 (Linux; Android 15; motorola razr 2023 Build/V1TVS35H.41-24-3-12-3-1; wv) AppleWebKit/537.36 (KHTML, like Gecko) Version/4.0 Chrome/148.0.7778.178 Mobile Safari/537.36","379","796","240","","2217","<div class=""prompt"" style=""font-size:24px; margin-bottom:20px;"">Which word describes you more?</div>","1","pairing","1","malicious","selfish","NegNeg","4","51","negative","negative","47","selfish","right","true"
"html-keyboard-response","4","9832","0.0-2.0-0.1","1096","59","post","10","afternoon","2026-05-13","2026-05-25","2026-06-03T18:14:07.506Z","Mozilla/5.0 (Linux; Android 15; motorola razr 2023 Build/V1TVS35H.41-24-3-12-3-1; wv) AppleWebKit/537.36 (KHTML, like Gecko) Version/4.0 Chrome/148.0.7778.178 Mobile Safari/537.36","379","796","240","","null","<div style=""font-size:60px;"">+</div>","null","fixation","","","","","","","","","","","",""
"html-button-response","5","13331","0.0-2.0-1.1","1096","59","post","10","afternoon","2026-05-13","2026-05-25","2026-06-03T18:14:07.506Z","Mozilla/5.0 (Linux; Android 15; motorola razr 2023 Build/V1TVS35H.41-24-3-12-3-1; wv) AppleWebKit/537.36 (KHTML, like Gecko) Version/4.0 Chrome/148.0.7778.178 Mobile Safari/537.36","379","796","240","","3495","<div class=""prompt"" style=""font-size:24px; margin-bottom:20px;"">Which word describes you more?</div>","1","pairing","2","helpless","slob","NegNeg","3","2","negative","negative","1","slob","right","true"
"html-keyboard-response","6","14135","0.0-2.0-0.2","1096","59","post","10","afternoon","2026-05-13","2026-05-25","2026-06-03T18:14:07.506Z","Mozilla/5.0 (Linux; Android 15; motorola razr 2023 Build/V1TVS35H.41-24-3-12-3-1; wv) AppleWebKit/537.36 (KHTML, like Gecko) Version/4.0 Chrome/148.0.7778.178 Mobile Safari/537.36","379","796","240","","null","<div style=""font-size:60px;"">+</div>","null","fixation","","","","","","","","","","","",""
"html-button-response","7","15520","0.0-2.0-1.2","1096","59","post","10","afternoon","2026-05-13","2026-05-25","2026-06-03T18:14:07.506Z","Mozilla/5.0 (Linux; Android 15; motorola razr 2023 Build/V1TVS35H.41-24-3-12-3-1; wv) AppleWebKit/537.36 (KHTML, like Gecko) Version/4.0 Chrome/148.0.7778.178 Mobile Safari/537.36","379","796","240","","1379","<div class=""prompt"" style=""font-size:24px; margin-bottom:20px;"">Which word describes you more?</div>","1","pairing","3","boring","enthusiastic","PosNeg","14","93","negative","positive","79","enthusiastic","right","true"
"html-keyboard-response","8","16324","0.0-2.0-0.3","1096","59","post","10","afternoon","2026-05-13","2026-05-25","2026-06-03T18:14:07.506Z","Mozilla/5.0 (Linux; Android 15; motorola razr 2023 Build/V1TVS35H.41-24-3-12-3-1; wv) AppleWebKit/537.36 (KHTML, like Gecko) Version/4.0 Chrome/148.0.7778.178 Mobile Safari/537.36","379","796","240","","null","<div style=""font-size:60px;"">+</div>","null","fixation","","","","","","","","","","","",""
"html-button-response","9","17469","0.0-2.0-1.3","1096","59","post","10","afternoon","2026-05-13","2026-05-25","2026-06-03T18:14:07.506Z","Mozilla/5.0 (Linux; Android 15; motorola razr 2023 Build/V1TVS35H.41-24-3-12-3-1; wv) AppleWebKit/537.36 (KHTML, like Gecko) Version/4.0 Chrome/148.0.7778.178 Mobile Safari/537.36","379","796","240","","1141","<div class=""prompt"" style=""font-size:24px; margin-bottom:20px;"">Which word describes you more?</div>","1","pairing","4","irresponsible","virtuous","PosNeg","49","52","negative","positive","3","virtuous","right","true"
"html-keyboard-response","10","18271","0.0-2.0-0.4","1096","59","post","10","afternoon","2026-05-13","2026-05-25","2026-06-03T18:14:07.506Z","Mozilla/5.0 (Linux; Android 15; motorola razr 2023 Build/V1TVS35H.41-24-3-12-3-1; wv) AppleWebKit/537.36 (KHTML, like Gecko) Version/4.0 Chrome/148.0.7778.178 Mobile Safari/537.36","379","796","240","","null","<div style=""font-size:60px;"">+</div>","null","fixation","","","","","","","","","","","",""
"html-button-response","11","20039","0.0-2.0-1.4","1096","59","post","10","afternoon","2026-05-13","2026-05-25","2026-06-03T18:14:07.506Z","Mozilla/5.0 (Linux; Android 15; motorola razr 2023 Build/V1TVS35H.41-24-3-12-3-1; wv) AppleWebKit/537.36 (KHTML, like Gecko) Version/4.0 Chrome/148.0.7778.178 Mobile Safari/537.36","379","796","240","","1764","<div class=""prompt"" style=""font-size:24px; margin-bottom:20px;"">Which word describes you more?</div>","1","pairing","5","carefree","admired","PosPos","8","93","positive","positive","85","admired","right","true"
"html-keyboard-response","12","20841","0.0-2.0-0.5","1096","59","post","10","afternoon","2026-05-13","2026-05-25","2026-06-03T18:14:07.506Z","Mozilla/5.0 (Linux; Android 15; motorola razr 2023 Build/V1TVS35H.41-24-3-12-3-1; wv) AppleWebKit/537.36 (KHTML, like Gecko) Version/4.0 Chrome/148.0.7778.178 Mobile Safari/537.36","379","796","240","","null","<div style=""font-size:60px;"">+</div>","null","fixation","","","","","","","","","","","",""
"html-button-response","13","21812","0.0-2.0-1.5","1096","59","post","10","afternoon","2026-05-13","2026-05-25","2026-06-03T18:14:07.506Z","Mozilla/5.0 (Linux; Android 15; motorola razr 2023 Build/V1TVS35H.41-24-3-12-3-1; wv) AppleWebKit/537.36 (KHTML, like Gecko) Version/4.0 Chrome/148.0.7778.178 Mobile Safari/537.36","379","796","240","","967","<div class=""prompt"" style=""font-size:24px; margin-bottom:20px;"">Which word describes you more?</div>","0","pairing","6","smart","violent","PosNeg","98","4","positive","negative","94","smart","left","true"
"html-keyboard-response","14","22613","0.0-2.0-0.6","1096","59","post","10","afternoon","2026-05-13","2026-05-25","2026-06-03T18:14:07.506Z","Mozilla/5.0 (Linux; Android 15; motorola razr 2023 Build/V1TVS35H.41-24-3-12-3-1; wv) AppleWebKit/537.36 (KHTML, like Gecko) Version/4.0 Chrome/148.0.7778.178 Mobile Safari/537.36","379","796","240","","null","<div style=""font-size:60px;"">+</div>","null","fixation","","","","","","","","","","","",""
"html-button-response","15","23810","0.0-2.0-1.6","1096","59","post","10","afternoon","2026-05-13","2026-05-25","2026-06-03T18:14:07.506Z","Mozilla/5.0 (Linux; Android 15; motorola razr 2023 Build/V1TVS35H.41-24-3-12-3-1; wv) AppleWebKit/537.36 (KHTML, like Gecko) Version/4.0 Chrome/148.0.7778.178 Mobile Safari/537.36","379","796","240","","1192","<div class=""prompt"" style=""font-size:24px; margin-bottom:20px;"">Which word describes you more?</div>","0","pairing","7","prick","flawless","PosNeg","50","37","negative","positive","13","prick","left","true"
"html-keyboard-response","16","24612","0.0-2.0-0.7","1096","59","post","10","afternoon","2026-05-13","2026-05-25","2026-06-03T18:14:07.506Z","Mozilla/5.0 (Linux; Android 15; motorola razr 2023 Build/V1TVS35H.41-24-3-12-3-1; wv) AppleWebKit/537.36 (KHTML, like Gecko) Version/4.0 Chrome/148.0.7778.178 Mobile Safari/537.36","379","796","240","","null","<div style=""font-size:60px;"">+</div>","null","fixation","","","","","","","","","","","",""
"html-button-response","17","26437","0.0-2.0-1.7","1096","59","post","10","afternoon","2026-05-13","2026-05-25","2026-06-03T18:14:07.506Z","Mozilla/5.0 (Linux; Android 15; motorola razr 2023 Build/V1TVS35H.41-24-3-12-3-1; wv) AppleWebKit/537.36 (KHTML, like Gecko) Version/4.0 Chrome/148.0.7778.178 Mobile Safari/537.36","379","796","240","","1821","<div class=""prompt"" style=""font-size:24px; margin-bottom:20px;"">Which word describes you more?</div>","1","pairing","8","carefree","selfish","PosNeg","8","51","positive","negative","43","selfish","right","true"
"html-keyboard-response","18","27241","0.0-2.0-0.8","1096","59","post","10","afternoon","2026-05-13","2026-05-25","2026-06-03T18:14:07.506Z","Mozilla/5.0 (Linux; Android 15; motorola razr 2023 Build/V1TVS35H.41-24-3-12-3-1; wv) AppleWebKit/537.36 (KHTML, like Gecko) Version/4.0 Chrome/148.0.7778.178 Mobile Safari/537.36","379","796","240","","null","<div style=""font-size:60px;"">+</div>","null","fixation","","","","","","","","","","","",""
"html-button-response","19","30307","0.0-2.0-1.8","1096","59","post","10","afternoon","2026-05-13","2026-05-25","2026-06-03T18:14:07.506Z","Mozilla/5.0 (Linux; Android 15; motorola razr 2023 Build/V1TVS35H.41-24-3-12-3-1; wv) AppleWebKit/537.36 (KHTML, like Gecko) Version/4.0 Chrome/148.0.7778.178 Mobile Safari/537.36","379","796","240","","3063","<div class=""prompt"" style=""font-size:24px; margin-bottom:20px;"">Which word describes you more?</div>","0","pairing","9","sadistic","malicious","NegNeg","76","4","negative","negative","72","sadistic","left","true"
"html-keyboard-response","20","31110","0.0-2.0-0.9","1096","59","post","10","afternoon","2026-05-13","2026-05-25","2026-06-03T18:14:07.506Z","Mozilla/5.0 (Linux; Android 15; motorola razr 2023 Build/V1TVS35H.41-24-3-12-3-1; wv) AppleWebKit/537.36 (KHTML, like Gecko) Version/4.0 Chrome/148.0.7778.178 Mobile Safari/537.36","379","796","240","","null","<div style=""font-size:60px;"">+</div>","null","fixation","","","","","","","","","","","",""
"html-button-response","21","34369","0.0-2.0-1.9","1096","59","post","10","afternoon","2026-05-13","2026-05-25","2026-06-03T18:14:07.506Z","Mozilla/5.0 (Linux; Android 15; motorola razr 2023 Build/V1TVS35H.41-24-3-12-3-1; wv) AppleWebKit/537.36 (KHTML, like Gecko) Version/4.0 Chrome/148.0.7778.178 Mobile Safari/537.36","379","796","240","","3255","<div class=""prompt"" style=""font-size:24px; margin-bottom:20px;"">Which word describes you more?</div>","1","pairing","10","terrible","sadistic","NegNeg","1","76","negative","negative","75","sadistic","right","true"
"html-keyboard-response","22","35173","0.0-2.0-0.10","1096","59","post","10","afternoon","2026-05-13","2026-05-25","2026-06-03T18:14:07.506Z","Mozilla/5.0 (Linux; Android 15; motorola razr 2023 Build/V1TVS35H.41-24-3-12-3-1; wv) AppleWebKit/537.36 (KHTML, like Gecko) Version/4.0 Chrome/148.0.7778.178 Mobile Safari/537.36","379","796","240","","null","<div style=""font-size:60px;"">+</div>","null","fixation","","","","","","","","","","","",""
"html-button-response","23","36269","0.0-2.0-1.10","1096","59","post","10","afternoon","2026-05-13","2026-05-25","2026-06-03T18:14:07.506Z","Mozilla/5.0 (Linux; Android 15; motorola razr 2023 Build/V1TVS35H.41-24-3-12-3-1; wv) AppleWebKit/537.36 (KHTML, like Gecko) Version/4.0 Chrome/148.0.7778.178 Mobile Safari/537.36","379","796","240","","1092","<div class=""prompt"" style=""font-size:24px; margin-bottom:20px;"">Which word describes you more?</div>","0","pairing","11","bully","anxious","NegNeg","68","15","negative","negative","53","bully","left","true"
"html-keyboard-response","24","37071","0.0-2.0-0.11","1096","59","post","10","afternoon","2026-05-13","2026-05-25","2026-06-03T18:14:07.506Z","Mozilla/5.0 (Linux; Android 15; motorola razr 2023 Build/V1TVS35H.41-24-3-12-3-1; wv) AppleWebKit/537.36 (KHTML, like Gecko) Version/4.0 Chrome/148.0.7778.178 Mobile Safari/537.36","379","796","240","","null","<div style=""font-size:60px;"">+</div>","null","fixation","","","","","","","","","","","",""
"html-button-response","25","38108","0.0-2.0-1.11","1096","59","post","10","afternoon","2026-05-13","2026-05-25","2026-06-03T18:14:07.506Z","Mozilla/5.0 (Linux; Android 15; motorola razr 2023 Build/V1TVS35H.41-24-3-12-3-1; wv) AppleWebKit/537.36 (KHTML, like Gecko) Version/4.0 Chrome/148.0.7778.178 Mobile Safari/537.36","379","796","240","","1034","<div class=""prompt"" style=""font-size:24px; margin-bottom:20px;"">Which word describes you more?</div>","0","pairing","12","learner","coward","PosNeg","98","6","positive","negative","92","learner","left","true"
"html-keyboard-response","26","38911","0.0-2.0-0.12","1096","59","post","10","afternoon","2026-05-13","2026-05-25","2026-06-03T18:14:07.506Z","Mozilla/5.0 (Linux; Android 15; motorola razr 2023 Build/V1TVS35H.41-24-3-12-3-1; wv) AppleWebKit/537.36 (KHTML, like Gecko) Version/4.0 Chrome/148.0.7778.178 Mobile Safari/537.36","379","796","240","","null","<div style=""font-size:60px;"">+</div>","null","fixation","","","","","","","","","","","",""
"html-button-response","27","41963","0.0-2.0-1.12","1096","59","post","10","afternoon","2026-05-13","2026-05-25","2026-06-03T18:14:07.506Z","Mozilla/5.0 (Linux; Android 15; motorola razr 2023 Build/V1TVS35H.41-24-3-12-3-1; wv) AppleWebKit/537.36 (KHTML, like Gecko) Version/4.0 Chrome/148.0.7778.178 Mobile Safari/537.36","379","796","240","","3049","<div class=""prompt"" style=""font-size:24px; margin-bottom:20px;"">Which word describes you more?</div>","0","pairing","13","legendary","garbage","PosNeg","85","23","positive","negative","62","legendary","left","true"
"html-keyboard-response","28","42766","0.0-2.0-0.13","1096","59","post","10","afternoon","2026-05-13","2026-05-25","2026-06-03T18:14:07.506Z","Mozilla/5.0 (Linux; Android 15; motorola razr 2023 Build/V1TVS35H.41-24-3-12-3-1; wv) AppleWebKit/537.36 (KHTML, like Gecko) Version/4.0 Chrome/148.0.7778.178 Mobile Safari/537.36","379","796","240","","null","<div style=""font-size:60px;"">+</div>","null","fixation","","","","","","","","","","","",""
"html-button-response","29","43943","0.0-2.0-1.13","1096","59","post","10","afternoon","2026-05-13","2026-05-25","2026-06-03T18:14:07.506Z","Mozilla/5.0 (Linux; Android 15; motorola razr 2023 Build/V1TVS35H.41-24-3-12-3-1; wv) AppleWebKit/537.36 (KHTML, like Gecko) Version/4.0 Chrome/148.0.7778.178 Mobile Safari/537.36","379","796","240","","1174","<div class=""prompt"" style=""font-size:24px; margin-bottom:20px;"">Which word describes you more?</div>","1","pairing","14","disgrace","champion","PosNeg","5","39","negative","positive","34","champion","right","true"
"html-keyboard-response","30","44746","0.0-2.0-0.14","1096","59","post","10","afternoon","2026-05-13","2026-05-25","2026-06-03T18:14:07.506Z","Mozilla/5.0 (Linux; Android 15; motorola razr 2023 Build/V1TVS35H.41-24-3-12-3-1; wv) AppleWebKit/537.36 (KHTML, like Gecko) Version/4.0 Chrome/148.0.7778.178 Mobile Safari/537.36","379","796","240","","null","<div style=""font-size:60px;"">+</div>","null","fixation","","","","","","","","","","","",""
"html-button-response","31","46391","0.0-2.0-1.14","1096","59","post","10","afternoon","2026-05-13","2026-05-25","2026-06-03T18:14:07.506Z","Mozilla/5.0 (Linux; Android 15; motorola razr 2023 Build/V1TVS35H.41-24-3-12-3-1; wv) AppleWebKit/537.36 (KHTML, like Gecko) Version/4.0 Chrome/148.0.7778.178 Mobile Safari/537.36","379","796","240","","1642","<div class=""prompt"" style=""font-size:24px; margin-bottom:20px;"">Which word describes you more?</div>","0","pairing","15","admired","alone","PosNeg","93","3","positive","negative","90","admired","left","true"
"html-keyboard-response","32","47194","0.0-2.0-0.15","1096","59","post","10","afternoon","2026-05-13","2026-05-25","2026-06-03T18:14:07.506Z","Mozilla/5.0 (Linux; Android 15; motorola razr 2023 Build/V1TVS35H.41-24-3-12-3-1; wv) AppleWebKit/537.36 (KHTML, like Gecko) Version/4.0 Chrome/148.0.7778.178 Mobile Safari/537.36","379","796","240","","null","<div style=""font-size:60px;"">+</div>","null","fixation","","","","","","","","","","","",""
"html-button-response","33","49054","0.0-2.0-1.15","1096","59","post","10","afternoon","2026-05-13","2026-05-25","2026-06-03T18:14:07.506Z","Mozilla/5.0 (Linux; Android 15; motorola razr 2023 Build/V1TVS35H.41-24-3-12-3-1; wv) AppleWebKit/537.36 (KHTML, like Gecko) Version/4.0 Chrome/148.0.7778.178 Mobile Safari/537.36","379","796","240","","1855","<div class=""prompt"" style=""font-size:24px; margin-bottom:20px;"">Which word describes you more?</div>","1","pairing","16","bully","spontaneous","PosNeg","68","21","negative","positive","47","spontaneous","right","true"
"html-keyboard-response","34","49856","0.0-2.0-0.16","1096","59","post","10","afternoon","2026-05-13","2026-05-25","2026-06-03T18:14:07.506Z","Mozilla/5.0 (Linux; Android 15; motorola razr 2023 Build/V1TVS35H.41-24-3-12-3-1; wv) AppleWebKit/537.36 (KHTML, like Gecko) Version/4.0 Chrome/148.0.7778.178 Mobile Safari/537.36","379","796","240","","null","<div style=""font-size:60px;"">+</div>","null","fixation","","","","","","","","","","","",""
"html-button-response","35","50989","0.0-2.0-1.16","1096","59","post","10","afternoon","2026-05-13","2026-05-25","2026-06-03T18:14:07.506Z","Mozilla/5.0 (Linux; Android 15; motorola razr 2023 Build/V1TVS35H.41-24-3-12-3-1; wv) AppleWebKit/537.36 (KHTML, like Gecko) Version/4.0 Chrome/148.0.7778.178 Mobile Safari/537.36","379","796","240","","1129","<div class=""prompt"" style=""font-size:24px; margin-bottom:20px;"">Which word describes you more?</div>","0","pairing","17","committed","carefree","PosPos","83","8","positive","positive","75","committed","left","true"
"html-keyboard-response","36","51792","0.0-2.0-0.17","1096","59","post","10","afternoon","2026-05-13","2026-05-25","2026-06-03T18:14:07.506Z","Mozilla/5.0 (Linux; Android 15; motorola razr 2023 Build/V1TVS35H.41-24-3-12-3-1; wv) AppleWebKit/537.36 (KHTML, like Gecko) Version/4.0 Chrome/148.0.7778.178 Mobile Safari/537.36","379","796","240","","null","<div style=""font-size:60px;"">+</div>","null","fixation","","","","","","","","","","","",""
"html-button-response","37","53371","0.0-2.0-1.17","1096","59","post","10","afternoon","2026-05-13","2026-05-25","2026-06-03T18:14:07.506Z","Mozilla/5.0 (Linux; Android 15; motorola razr 2023 Build/V1TVS35H.41-24-3-12-3-1; wv) AppleWebKit/537.36 (KHTML, like Gecko) Version/4.0 Chrome/148.0.7778.178 Mobile Safari/537.36","379","796","240","","1575","<div class=""prompt"" style=""font-size:24px; margin-bottom:20px;"">Which word describes you more?</div>","0","pairing","18","inspirational","sadistic","PosNeg","72","76","positive","negative","4","inspirational","left","true"
"html-keyboard-response","38","54174","0.0-2.0-0.18","1096","59","post","10","afternoon","2026-05-13","2026-05-25","2026-06-03T18:14:07.506Z","Mozilla/5.0 (Linux; Android 15; motorola razr 2023 Build/V1TVS35H.41-24-3-12-3-1; wv) AppleWebKit/537.36 (KHTML, like Gecko) Version/4.0 Chrome/148.0.7778.178 Mobile Safari/537.36","379","796","240","","null","<div style=""font-size:60px;"">+</div>","null","fixation","","","","","","","","","","","",""
"html-button-response","39","59178","0.0-2.0-1.18","1096","59","post","10","afternoon","2026-05-13","2026-05-25","2026-06-03T18:14:07.506Z","Mozilla/5.0 (Linux; Android 15; motorola razr 2023 Build/V1TVS35H.41-24-3-12-3-1; wv) AppleWebKit/537.36 (KHTML, like Gecko) Version/4.0 Chrome/148.0.7778.178 Mobile Safari/537.36","379","796","240","","null","<div class=""prompt"" style=""font-size:24px; margin-bottom:20px;"">Which word describes you more?</div>","null","pairing","19","regretful","negligent","NegNeg","1","5","negative","negative","4","null","null","false"
"html-keyboard-response","40","59982","0.0-2.0-0.19","1096","59","post","10","afternoon","2026-05-13","2026-05-25","2026-06-03T18:14:07.506Z","Mozilla/5.0 (Linux; Android 15; motorola razr 2023 Build/V1TVS35H.41-24-3-12-3-1; wv) AppleWebKit/537.36 (KHTML, like Gecko) Version/4.0 Chrome/148.0.7778.178 Mobile Safari/537.36","379","796","240","","null","<div style=""font-size:60px;"">+</div>","null","fixation","","","","","","","","","","","",""
"html-button-response","41","61316","0.0-2.0-1.19","1096","59","post","10","afternoon","2026-05-13","2026-05-25","2026-06-03T18:14:07.506Z","Mozilla/5.0 (Linux; Android 15; motorola razr 2023 Build/V1TVS35H.41-24-3-12-3-1; wv) AppleWebKit/537.36 (KHTML, like Gecko) Version/4.0 Chrome/148.0.7778.178 Mobile Safari/537.36","379","796","240","","1331","<div class=""prompt"" style=""font-size:24px; margin-bottom:20px;"">Which word describes you more?</div>","0","pairing","20","courteous","delight","PosPos","81","88","positive","positive","7","courteous","left","true"
"html-keyboard-response","42","62119","0.0-2.0-0.20","1096","59","post","10","afternoon","2026-05-13","2026-05-25","2026-06-03T18:14:07.506Z","Mozilla/5.0 (Linux; Android 15; motorola razr 2023 Build/V1TVS35H.41-24-3-12-3-1; wv) AppleWebKit/537.36 (KHTML, like Gecko) Version/4.0 Chrome/148.0.7778.178 Mobile Safari/537.36","379","796","240","","null","<div style=""font-size:60px;"">+</div>","null","fixation","","","","","","","","","","","",""
"html-button-response","43","63479","0.0-2.0-1.20","1096","59","post","10","afternoon","2026-05-13","2026-05-25","2026-06-03T18:14:07.506Z","Mozilla/5.0 (Linux; Android 15; motorola razr 2023 Build/V1TVS35H.41-24-3-12-3-1; wv) AppleWebKit/537.36 (KHTML, like Gecko) Version/4.0 Chrome/148.0.7778.178 Mobile Safari/537.36","379","796","240","","1356","<div class=""prompt"" style=""font-size:24px; margin-bottom:20px;"">Which word describes you more?</div>","0","pairing","21","goodwilled","valued","PosPos","87","78","positive","positive","9","goodwilled","left","true"
"html-keyboard-response","44","64283","0.0-2.0-0.21","1096","59","post","10","afternoon","2026-05-13","2026-05-25","2026-06-03T18:14:07.506Z","Mozilla/5.0 (Linux; Android 15; motorola razr 2023 Build/V1TVS35H.41-24-3-12-3-1; wv) AppleWebKit/537.36 (KHTML, like Gecko) Version/4.0 Chrome/148.0.7778.178 Mobile Safari/537.36","379","796","240","","null","<div style=""font-size:60px;"">+</div>","null","fixation","","","","","","","","","","","",""
"html-button-response","45","65539","0.0-2.0-1.21","1096","59","post","10","afternoon","2026-05-13","2026-05-25","2026-06-03T18:14:07.506Z","Mozilla/5.0 (Linux; Android 15; motorola razr 2023 Build/V1TVS35H.41-24-3-12-3-1; wv) AppleWebKit/537.36 (KHTML, like Gecko) Version/4.0 Chrome/148.0.7778.178 Mobile Safari/537.36","379","796","240","","1249","<div class=""prompt"" style=""font-size:24px; margin-bottom:20px;"">Which word describes you more?</div>","0","pairing","22","spontaneous","alone","PosNeg","21","3","positive","negative","18","spontaneous","left","true"
"html-keyboard-response","46","66341","0.0-2.0-0.22","1096","59","post","10","afternoon","2026-05-13","2026-05-25","2026-06-03T18:14:07.506Z","Mozilla/5.0 (Linux; Android 15; motorola razr 2023 Build/V1TVS35H.41-24-3-12-3-1; wv) AppleWebKit/537.36 (KHTML, like Gecko) Version/4.0 Chrome/148.0.7778.178 Mobile Safari/537.36","379","796","240","","null","<div style=""font-size:60px;"">+</div>","null","fixation","","","","","","","","","","","",""
"html-button-response","47","68093","0.0-2.0-1.22","1096","59","post","10","afternoon","2026-05-13","2026-05-25","2026-06-03T18:14:07.506Z","Mozilla/5.0 (Linux; Android 15; motorola razr 2023 Build/V1TVS35H.41-24-3-12-3-1; wv) AppleWebKit/537.36 (KHTML, like Gecko) Version/4.0 Chrome/148.0.7778.178 Mobile Safari/537.36","379","796","240","","1748","<div class=""prompt"" style=""font-size:24px; margin-bottom:20px;"">Which word describes you more?</div>","0","pairing","23","thoughtful","champion","PosPos","83","39","positive","positive","44","thoughtful","left","true"
"html-keyboard-response","48","68897","0.0-2.0-0.23","1096","59","post","10","afternoon","2026-05-13","2026-05-25","2026-06-03T18:14:07.506Z","Mozilla/5.0 (Linux; Android 15; motorola razr 2023 Build/V1TVS35H.41-24-3-12-3-1; wv) AppleWebKit/537.36 (KHTML, like Gecko) Version/4.0 Chrome/148.0.7778.178 Mobile Safari/537.36","379","796","240","","null","<div style=""font-size:60px;"">+</div>","null","fixation","","","","","","","","","","","",""
"html-button-response","49","70030","0.0-2.0-1.23","1096","59","post","10","afternoon","2026-05-13","2026-05-25","2026-06-03T18:14:07.506Z","Mozilla/5.0 (Linux; Android 15; motorola razr 2023 Build/V1TVS35H.41-24-3-12-3-1; wv) AppleWebKit/537.36 (KHTML, like Gecko) Version/4.0 Chrome/148.0.7778.178 Mobile Safari/537.36","379","796","240","","1130","<div class=""prompt"" style=""font-size:24px; margin-bottom:20px;"">Which word describes you more?</div>","1","pairing","24","sophisticated","courteous","PosPos","29","81","positive","positive","52","courteous","right","true"
"instructions","50","70740","0.0-3.0","1096","59","post","10","afternoon","2026-05-13","2026-05-25","2026-06-03T18:14:07.506Z","Mozilla/5.0 (Linux; Android 15; motorola razr 2023 Build/V1TVS35H.41-24-3-12-3-1; wv) AppleWebKit/537.36 (KHTML, like Gecko) Version/4.0 Chrome/148.0.7778.178 Mobile Safari/537.36","379","796","240","[{""page_index"":0,""viewing_time"":707}]","708","","","","","","","","","","","","","","",""
