"trial_type","trial_index","time_elapsed","internal_node_id","PUNS_ID","session_number","session_phase","session_day","session_slot","ema_start_date","ema_post_start_date","experiment_start","browser","screen_width","screen_height","timezone_offset","view_history","rt","stimulus","response","which_experiment_phase","trial_number","left_word","right_word","valence","left_base_rating","right_base_rating","left_valence","right_valence","abs_diff","participant_response","chosen_side","valid_response"
"pavlovia","0","1193","0.0-0.0","1098","41","post","4","afternoon","2026-05-20","2026-06-01","2026-06-04T19:02:17.207Z","Mozilla/5.0 (Linux; Android 16; SM-S901U Build/BP2A.250605.031.A3; wv) AppleWebKit/537.36 (KHTML, like Gecko) Version/4.0 Chrome/148.0.7778.215 Mobile Safari/537.36","328","588","240","","","","","","","","","","","","","","","","",""
"instructions","1","5337","0.0-1.0","1098","41","post","4","afternoon","2026-05-20","2026-06-01","2026-06-04T19:02:17.207Z","Mozilla/5.0 (Linux; Android 16; SM-S901U Build/BP2A.250605.031.A3; wv) AppleWebKit/537.36 (KHTML, like Gecko) Version/4.0 Chrome/148.0.7778.215 Mobile Safari/537.36","328","588","240","[{""page_index"":0,""viewing_time"":1009},{""page_index"":1,""viewing_time"":731},{""page_index"":2,""viewing_time"":1641},{""page_index"":3,""viewing_time"":760}]","4142","","","","","","","","","","","","","","",""
"html-keyboard-response","2","6141","0.0-2.0-0.0","1098","41","post","4","afternoon","2026-05-20","2026-06-01","2026-06-04T19:02:17.207Z","Mozilla/5.0 (Linux; Android 16; SM-S901U Build/BP2A.250605.031.A3; wv) AppleWebKit/537.36 (KHTML, like Gecko) Version/4.0 Chrome/148.0.7778.215 Mobile Safari/537.36","328","588","240","","null","<div style=""font-size:60px;"">+</div>","null","fixation","","","","","","","","","","","",""
"html-button-response","3","8651","0.0-2.0-1.0","1098","41","post","4","afternoon","2026-05-20","2026-06-01","2026-06-04T19:02:17.207Z","Mozilla/5.0 (Linux; Android 16; SM-S901U Build/BP2A.250605.031.A3; wv) AppleWebKit/537.36 (KHTML, like Gecko) Version/4.0 Chrome/148.0.7778.215 Mobile Safari/537.36","328","588","240","","2506","<div class=""prompt"" style=""font-size:24px; margin-bottom:20px;"">Which word describes you more?</div>","1","pairing","1","flawless","witty","PosPos","21","96","positive","positive","75","witty","right","true"
"html-keyboard-response","4","9453","0.0-2.0-0.1","1098","41","post","4","afternoon","2026-05-20","2026-06-01","2026-06-04T19:02:17.207Z","Mozilla/5.0 (Linux; Android 16; SM-S901U Build/BP2A.250605.031.A3; wv) AppleWebKit/537.36 (KHTML, like Gecko) Version/4.0 Chrome/148.0.7778.215 Mobile Safari/537.36","328","588","240","","null","<div style=""font-size:60px;"">+</div>","null","fixation","","","","","","","","","","","",""
"html-button-response","5","11089","0.0-2.0-1.1","1098","41","post","4","afternoon","2026-05-20","2026-06-01","2026-06-04T19:02:17.207Z","Mozilla/5.0 (Linux; Android 16; SM-S901U Build/BP2A.250605.031.A3; wv) AppleWebKit/537.36 (KHTML, like Gecko) Version/4.0 Chrome/148.0.7778.215 Mobile Safari/537.36","328","588","240","","1630","<div class=""prompt"" style=""font-size:24px; margin-bottom:20px;"">Which word describes you more?</div>","0","pairing","2","witty","alluring","PosPos","96","29","positive","positive","67","witty","left","true"
"html-keyboard-response","6","11893","0.0-2.0-0.2","1098","41","post","4","afternoon","2026-05-20","2026-06-01","2026-06-04T19:02:17.207Z","Mozilla/5.0 (Linux; Android 16; SM-S901U Build/BP2A.250605.031.A3; wv) AppleWebKit/537.36 (KHTML, like Gecko) Version/4.0 Chrome/148.0.7778.215 Mobile Safari/537.36","328","588","240","","null","<div style=""font-size:60px;"">+</div>","null","fixation","","","","","","","","","","","",""
"html-button-response","7","14089","0.0-2.0-1.2","1098","41","post","4","afternoon","2026-05-20","2026-06-01","2026-06-04T19:02:17.207Z","Mozilla/5.0 (Linux; Android 16; SM-S901U Build/BP2A.250605.031.A3; wv) AppleWebKit/537.36 (KHTML, like Gecko) Version/4.0 Chrome/148.0.7778.215 Mobile Safari/537.36","328","588","240","","2193","<div class=""prompt"" style=""font-size:24px; margin-bottom:20px;"">Which word describes you more?</div>","1","pairing","3","worthless","vengeful","NegNeg","0","37","negative","negative","37","vengeful","right","true"
"html-keyboard-response","8","14893","0.0-2.0-0.3","1098","41","post","4","afternoon","2026-05-20","2026-06-01","2026-06-04T19:02:17.207Z","Mozilla/5.0 (Linux; Android 16; SM-S901U Build/BP2A.250605.031.A3; wv) AppleWebKit/537.36 (KHTML, like Gecko) Version/4.0 Chrome/148.0.7778.215 Mobile Safari/537.36","328","588","240","","null","<div style=""font-size:60px;"">+</div>","null","fixation","","","","","","","","","","","",""
"html-button-response","9","16930","0.0-2.0-1.3","1098","41","post","4","afternoon","2026-05-20","2026-06-01","2026-06-04T19:02:17.207Z","Mozilla/5.0 (Linux; Android 16; SM-S901U Build/BP2A.250605.031.A3; wv) AppleWebKit/537.36 (KHTML, like Gecko) Version/4.0 Chrome/148.0.7778.215 Mobile Safari/537.36","328","588","240","","2033","<div class=""prompt"" style=""font-size:24px; margin-bottom:20px;"">Which word describes you more?</div>","0","pairing","4","alone","carefree","PosNeg","50","15","negative","positive","35","alone","left","true"
"html-keyboard-response","10","17732","0.0-2.0-0.4","1098","41","post","4","afternoon","2026-05-20","2026-06-01","2026-06-04T19:02:17.207Z","Mozilla/5.0 (Linux; Android 16; SM-S901U Build/BP2A.250605.031.A3; wv) AppleWebKit/537.36 (KHTML, like Gecko) Version/4.0 Chrome/148.0.7778.215 Mobile Safari/537.36","328","588","240","","null","<div style=""font-size:60px;"">+</div>","null","fixation","","","","","","","","","","","",""
"html-button-response","11","19657","0.0-2.0-1.4","1098","41","post","4","afternoon","2026-05-20","2026-06-01","2026-06-04T19:02:17.207Z","Mozilla/5.0 (Linux; Android 16; SM-S901U Build/BP2A.250605.031.A3; wv) AppleWebKit/537.36 (KHTML, like Gecko) Version/4.0 Chrome/148.0.7778.215 Mobile Safari/537.36","328","588","240","","1921","<div class=""prompt"" style=""font-size:24px; margin-bottom:20px;"">Which word describes you more?</div>","1","pairing","5","vermin","charming","PosNeg","1","83","negative","positive","82","charming","right","true"
"html-keyboard-response","12","20459","0.0-2.0-0.5","1098","41","post","4","afternoon","2026-05-20","2026-06-01","2026-06-04T19:02:17.207Z","Mozilla/5.0 (Linux; Android 16; SM-S901U Build/BP2A.250605.031.A3; wv) AppleWebKit/537.36 (KHTML, like Gecko) Version/4.0 Chrome/148.0.7778.215 Mobile Safari/537.36","328","588","240","","null","<div style=""font-size:60px;"">+</div>","null","fixation","","","","","","","","","","","",""
"html-button-response","13","21557","0.0-2.0-1.5","1098","41","post","4","afternoon","2026-05-20","2026-06-01","2026-06-04T19:02:17.207Z","Mozilla/5.0 (Linux; Android 16; SM-S901U Build/BP2A.250605.031.A3; wv) AppleWebKit/537.36 (KHTML, like Gecko) Version/4.0 Chrome/148.0.7778.215 Mobile Safari/537.36","328","588","240","","1093","<div class=""prompt"" style=""font-size:24px; margin-bottom:20px;"">Which word describes you more?</div>","1","pairing","6","spontaneous","awkward","PosNeg","25","92","positive","negative","67","awkward","right","true"
"html-keyboard-response","14","22359","0.0-2.0-0.6","1098","41","post","4","afternoon","2026-05-20","2026-06-01","2026-06-04T19:02:17.207Z","Mozilla/5.0 (Linux; Android 16; SM-S901U Build/BP2A.250605.031.A3; wv) AppleWebKit/537.36 (KHTML, like Gecko) Version/4.0 Chrome/148.0.7778.215 Mobile Safari/537.36","328","588","240","","null","<div style=""font-size:60px;"">+</div>","null","fixation","","","","","","","","","","","",""
"html-button-response","15","25029","0.0-2.0-1.6","1098","41","post","4","afternoon","2026-05-20","2026-06-01","2026-06-04T19:02:17.207Z","Mozilla/5.0 (Linux; Android 16; SM-S901U Build/BP2A.250605.031.A3; wv) AppleWebKit/537.36 (KHTML, like Gecko) Version/4.0 Chrome/148.0.7778.215 Mobile Safari/537.36","328","588","240","","2667","<div class=""prompt"" style=""font-size:24px; margin-bottom:20px;"">Which word describes you more?</div>","1","pairing","7","excited","seeker","PosPos","43","81","positive","positive","38","seeker","right","true"
"html-keyboard-response","16","25831","0.0-2.0-0.7","1098","41","post","4","afternoon","2026-05-20","2026-06-01","2026-06-04T19:02:17.207Z","Mozilla/5.0 (Linux; Android 16; SM-S901U Build/BP2A.250605.031.A3; wv) AppleWebKit/537.36 (KHTML, like Gecko) Version/4.0 Chrome/148.0.7778.215 Mobile Safari/537.36","328","588","240","","null","<div style=""font-size:60px;"">+</div>","null","fixation","","","","","","","","","","","",""
"html-button-response","17","27723","0.0-2.0-1.7","1098","41","post","4","afternoon","2026-05-20","2026-06-01","2026-06-04T19:02:17.207Z","Mozilla/5.0 (Linux; Android 16; SM-S901U Build/BP2A.250605.031.A3; wv) AppleWebKit/537.36 (KHTML, like Gecko) Version/4.0 Chrome/148.0.7778.215 Mobile Safari/537.36","328","588","240","","1888","<div class=""prompt"" style=""font-size:24px; margin-bottom:20px;"">Which word describes you more?</div>","0","pairing","8","irresponsible","carefree","PosNeg","87","15","negative","positive","72","irresponsible","left","true"
"html-keyboard-response","18","28526","0.0-2.0-0.8","1098","41","post","4","afternoon","2026-05-20","2026-06-01","2026-06-04T19:02:17.207Z","Mozilla/5.0 (Linux; Android 16; SM-S901U Build/BP2A.250605.031.A3; wv) AppleWebKit/537.36 (KHTML, like Gecko) Version/4.0 Chrome/148.0.7778.215 Mobile Safari/537.36","328","588","240","","null","<div style=""font-size:60px;"">+</div>","null","fixation","","","","","","","","","","","",""
"html-button-response","19","31777","0.0-2.0-1.8","1098","41","post","4","afternoon","2026-05-20","2026-06-01","2026-06-04T19:02:17.207Z","Mozilla/5.0 (Linux; Android 16; SM-S901U Build/BP2A.250605.031.A3; wv) AppleWebKit/537.36 (KHTML, like Gecko) Version/4.0 Chrome/148.0.7778.215 Mobile Safari/537.36","328","588","240","","3246","<div class=""prompt"" style=""font-size:24px; margin-bottom:20px;"">Which word describes you more?</div>","0","pairing","9","regretful","hopeless","NegNeg","27","13","negative","negative","14","regretful","left","true"
"html-keyboard-response","20","32580","0.0-2.0-0.9","1098","41","post","4","afternoon","2026-05-20","2026-06-01","2026-06-04T19:02:17.207Z","Mozilla/5.0 (Linux; Android 16; SM-S901U Build/BP2A.250605.031.A3; wv) AppleWebKit/537.36 (KHTML, like Gecko) Version/4.0 Chrome/148.0.7778.215 Mobile Safari/537.36","328","588","240","","null","<div style=""font-size:60px;"">+</div>","null","fixation","","","","","","","","","","","",""
"html-button-response","21","34725","0.0-2.0-1.9","1098","41","post","4","afternoon","2026-05-20","2026-06-01","2026-06-04T19:02:17.207Z","Mozilla/5.0 (Linux; Android 16; SM-S901U Build/BP2A.250605.031.A3; wv) AppleWebKit/537.36 (KHTML, like Gecko) Version/4.0 Chrome/148.0.7778.215 Mobile Safari/537.36","328","588","240","","2142","<div class=""prompt"" style=""font-size:24px; margin-bottom:20px;"">Which word describes you more?</div>","0","pairing","10","humorous","esteemed","PosPos","73","63","positive","positive","10","humorous","left","true"
"html-keyboard-response","22","35527","0.0-2.0-0.10","1098","41","post","4","afternoon","2026-05-20","2026-06-01","2026-06-04T19:02:17.207Z","Mozilla/5.0 (Linux; Android 16; SM-S901U Build/BP2A.250605.031.A3; wv) AppleWebKit/537.36 (KHTML, like Gecko) Version/4.0 Chrome/148.0.7778.215 Mobile Safari/537.36","328","588","240","","null","<div style=""font-size:60px;"">+</div>","null","fixation","","","","","","","","","","","",""
"html-button-response","23","39364","0.0-2.0-1.10","1098","41","post","4","afternoon","2026-05-20","2026-06-01","2026-06-04T19:02:17.207Z","Mozilla/5.0 (Linux; Android 16; SM-S901U Build/BP2A.250605.031.A3; wv) AppleWebKit/537.36 (KHTML, like Gecko) Version/4.0 Chrome/148.0.7778.215 Mobile Safari/537.36","328","588","240","","3832","<div class=""prompt"" style=""font-size:24px; margin-bottom:20px;"">Which word describes you more?</div>","0","pairing","11","admired","traitor","PosNeg","88","21","positive","negative","67","admired","left","true"
"html-keyboard-response","24","40167","0.0-2.0-0.11","1098","41","post","4","afternoon","2026-05-20","2026-06-01","2026-06-04T19:02:17.207Z","Mozilla/5.0 (Linux; Android 16; SM-S901U Build/BP2A.250605.031.A3; wv) AppleWebKit/537.36 (KHTML, like Gecko) Version/4.0 Chrome/148.0.7778.215 Mobile Safari/537.36","328","588","240","","null","<div style=""font-size:60px;"">+</div>","null","fixation","","","","","","","","","","","",""
"html-button-response","25","44411","0.0-2.0-1.11","1098","41","post","4","afternoon","2026-05-20","2026-06-01","2026-06-04T19:02:17.207Z","Mozilla/5.0 (Linux; Android 16; SM-S901U Build/BP2A.250605.031.A3; wv) AppleWebKit/537.36 (KHTML, like Gecko) Version/4.0 Chrome/148.0.7778.215 Mobile Safari/537.36","328","588","240","","4239","<div class=""prompt"" style=""font-size:24px; margin-bottom:20px;"">Which word describes you more?</div>","0","pairing","12","pleased","untrustworthy","PosNeg","63","10","positive","negative","53","pleased","left","true"
"html-keyboard-response","26","45213","0.0-2.0-0.12","1098","41","post","4","afternoon","2026-05-20","2026-06-01","2026-06-04T19:02:17.207Z","Mozilla/5.0 (Linux; Android 16; SM-S901U Build/BP2A.250605.031.A3; wv) AppleWebKit/537.36 (KHTML, like Gecko) Version/4.0 Chrome/148.0.7778.215 Mobile Safari/537.36","328","588","240","","null","<div style=""font-size:60px;"">+</div>","null","fixation","","","","","","","","","","","",""
"html-button-response","27","47068","0.0-2.0-1.12","1098","41","post","4","afternoon","2026-05-20","2026-06-01","2026-06-04T19:02:17.207Z","Mozilla/5.0 (Linux; Android 16; SM-S901U Build/BP2A.250605.031.A3; wv) AppleWebKit/537.36 (KHTML, like Gecko) Version/4.0 Chrome/148.0.7778.215 Mobile Safari/537.36","328","588","240","","1852","<div class=""prompt"" style=""font-size:24px; margin-bottom:20px;"">Which word describes you more?</div>","0","pairing","13","liar","garbage","NegNeg","56","6","negative","negative","50","liar","left","true"
"html-keyboard-response","28","47871","0.0-2.0-0.13","1098","41","post","4","afternoon","2026-05-20","2026-06-01","2026-06-04T19:02:17.207Z","Mozilla/5.0 (Linux; Android 16; SM-S901U Build/BP2A.250605.031.A3; wv) AppleWebKit/537.36 (KHTML, like Gecko) Version/4.0 Chrome/148.0.7778.215 Mobile Safari/537.36","328","588","240","","null","<div style=""font-size:60px;"">+</div>","null","fixation","","","","","","","","","","","",""
"html-button-response","29","51997","0.0-2.0-1.13","1098","41","post","4","afternoon","2026-05-20","2026-06-01","2026-06-04T19:02:17.207Z","Mozilla/5.0 (Linux; Android 16; SM-S901U Build/BP2A.250605.031.A3; wv) AppleWebKit/537.36 (KHTML, like Gecko) Version/4.0 Chrome/148.0.7778.215 Mobile Safari/537.36","328","588","240","","4121","<div class=""prompt"" style=""font-size:24px; margin-bottom:20px;"">Which word describes you more?</div>","1","pairing","14","headache","courteous","PosNeg","21","87","negative","positive","66","courteous","right","true"
"html-keyboard-response","30","52799","0.0-2.0-0.14","1098","41","post","4","afternoon","2026-05-20","2026-06-01","2026-06-04T19:02:17.207Z","Mozilla/5.0 (Linux; Android 16; SM-S901U Build/BP2A.250605.031.A3; wv) AppleWebKit/537.36 (KHTML, like Gecko) Version/4.0 Chrome/148.0.7778.215 Mobile Safari/537.36","328","588","240","","null","<div style=""font-size:60px;"">+</div>","null","fixation","","","","","","","","","","","",""
"html-button-response","31","55775","0.0-2.0-1.14","1098","41","post","4","afternoon","2026-05-20","2026-06-01","2026-06-04T19:02:17.207Z","Mozilla/5.0 (Linux; Android 16; SM-S901U Build/BP2A.250605.031.A3; wv) AppleWebKit/537.36 (KHTML, like Gecko) Version/4.0 Chrome/148.0.7778.215 Mobile Safari/537.36","328","588","240","","2972","<div class=""prompt"" style=""font-size:24px; margin-bottom:20px;"">Which word describes you more?</div>","1","pairing","15","unpleasant","alone","NegNeg","17","50","negative","negative","33","alone","right","true"
"html-keyboard-response","32","56577","0.0-2.0-0.15","1098","41","post","4","afternoon","2026-05-20","2026-06-01","2026-06-04T19:02:17.207Z","Mozilla/5.0 (Linux; Android 16; SM-S901U Build/BP2A.250605.031.A3; wv) AppleWebKit/537.36 (KHTML, like Gecko) Version/4.0 Chrome/148.0.7778.215 Mobile Safari/537.36","328","588","240","","null","<div style=""font-size:60px;"">+</div>","null","fixation","","","","","","","","","","","",""
"html-button-response","33","59074","0.0-2.0-1.15","1098","41","post","4","afternoon","2026-05-20","2026-06-01","2026-06-04T19:02:17.207Z","Mozilla/5.0 (Linux; Android 16; SM-S901U Build/BP2A.250605.031.A3; wv) AppleWebKit/537.36 (KHTML, like Gecko) Version/4.0 Chrome/148.0.7778.215 Mobile Safari/537.36","328","588","240","","2492","<div class=""prompt"" style=""font-size:24px; margin-bottom:20px;"">Which word describes you more?</div>","0","pairing","16","spirited","jerk","PosNeg","34","35","positive","negative","1","spirited","left","true"
"html-keyboard-response","34","59876","0.0-2.0-0.16","1098","41","post","4","afternoon","2026-05-20","2026-06-01","2026-06-04T19:02:17.207Z","Mozilla/5.0 (Linux; Android 16; SM-S901U Build/BP2A.250605.031.A3; wv) AppleWebKit/537.36 (KHTML, like Gecko) Version/4.0 Chrome/148.0.7778.215 Mobile Safari/537.36","328","588","240","","null","<div style=""font-size:60px;"">+</div>","null","fixation","","","","","","","","","","","",""
"html-button-response","35","62035","0.0-2.0-1.16","1098","41","post","4","afternoon","2026-05-20","2026-06-01","2026-06-04T19:02:17.207Z","Mozilla/5.0 (Linux; Android 16; SM-S901U Build/BP2A.250605.031.A3; wv) AppleWebKit/537.36 (KHTML, like Gecko) Version/4.0 Chrome/148.0.7778.215 Mobile Safari/537.36","328","588","240","","2154","<div class=""prompt"" style=""font-size:24px; margin-bottom:20px;"">Which word describes you more?</div>","1","pairing","17","outcast","hopeful","PosNeg","70","85","negative","positive","15","hopeful","right","true"
"html-keyboard-response","36","62837","0.0-2.0-0.17","1098","41","post","4","afternoon","2026-05-20","2026-06-01","2026-06-04T19:02:17.207Z","Mozilla/5.0 (Linux; Android 16; SM-S901U Build/BP2A.250605.031.A3; wv) AppleWebKit/537.36 (KHTML, like Gecko) Version/4.0 Chrome/148.0.7778.215 Mobile Safari/537.36","328","588","240","","null","<div style=""font-size:60px;"">+</div>","null","fixation","","","","","","","","","","","",""
"html-button-response","37","66173","0.0-2.0-1.17","1098","41","post","4","afternoon","2026-05-20","2026-06-01","2026-06-04T19:02:17.207Z","Mozilla/5.0 (Linux; Android 16; SM-S901U Build/BP2A.250605.031.A3; wv) AppleWebKit/537.36 (KHTML, like Gecko) Version/4.0 Chrome/148.0.7778.215 Mobile Safari/537.36","328","588","240","","3333","<div class=""prompt"" style=""font-size:24px; margin-bottom:20px;"">Which word describes you more?</div>","0","pairing","18","cooperative","expert","PosPos","84","49","positive","positive","35","cooperative","left","true"
"html-keyboard-response","38","66975","0.0-2.0-0.18","1098","41","post","4","afternoon","2026-05-20","2026-06-01","2026-06-04T19:02:17.207Z","Mozilla/5.0 (Linux; Android 16; SM-S901U Build/BP2A.250605.031.A3; wv) AppleWebKit/537.36 (KHTML, like Gecko) Version/4.0 Chrome/148.0.7778.215 Mobile Safari/537.36","328","588","240","","null","<div style=""font-size:60px;"">+</div>","null","fixation","","","","","","","","","","","",""
"html-button-response","39","68468","0.0-2.0-1.18","1098","41","post","4","afternoon","2026-05-20","2026-06-01","2026-06-04T19:02:17.207Z","Mozilla/5.0 (Linux; Android 16; SM-S901U Build/BP2A.250605.031.A3; wv) AppleWebKit/537.36 (KHTML, like Gecko) Version/4.0 Chrome/148.0.7778.215 Mobile Safari/537.36","328","588","240","","1490","<div class=""prompt"" style=""font-size:24px; margin-bottom:20px;"">Which word describes you more?</div>","0","pairing","19","awkward","phony","NegNeg","92","11","negative","negative","81","awkward","left","true"
"html-keyboard-response","40","69270","0.0-2.0-0.19","1098","41","post","4","afternoon","2026-05-20","2026-06-01","2026-06-04T19:02:17.207Z","Mozilla/5.0 (Linux; Android 16; SM-S901U Build/BP2A.250605.031.A3; wv) AppleWebKit/537.36 (KHTML, like Gecko) Version/4.0 Chrome/148.0.7778.215 Mobile Safari/537.36","328","588","240","","null","<div style=""font-size:60px;"">+</div>","null","fixation","","","","","","","","","","","",""
"html-button-response","41","71201","0.0-2.0-1.19","1098","41","post","4","afternoon","2026-05-20","2026-06-01","2026-06-04T19:02:17.207Z","Mozilla/5.0 (Linux; Android 16; SM-S901U Build/BP2A.250605.031.A3; wv) AppleWebKit/537.36 (KHTML, like Gecko) Version/4.0 Chrome/148.0.7778.215 Mobile Safari/537.36","328","588","240","","1927","<div class=""prompt"" style=""font-size:24px; margin-bottom:20px;"">Which word describes you more?</div>","0","pairing","20","resourceful","defective","PosNeg","78","48","positive","negative","30","resourceful","left","true"
"html-keyboard-response","42","72004","0.0-2.0-0.20","1098","41","post","4","afternoon","2026-05-20","2026-06-01","2026-06-04T19:02:17.207Z","Mozilla/5.0 (Linux; Android 16; SM-S901U Build/BP2A.250605.031.A3; wv) AppleWebKit/537.36 (KHTML, like Gecko) Version/4.0 Chrome/148.0.7778.215 Mobile Safari/537.36","328","588","240","","null","<div style=""font-size:60px;"">+</div>","null","fixation","","","","","","","","","","","",""
"html-button-response","43","76328","0.0-2.0-1.20","1098","41","post","4","afternoon","2026-05-20","2026-06-01","2026-06-04T19:02:17.207Z","Mozilla/5.0 (Linux; Android 16; SM-S901U Build/BP2A.250605.031.A3; wv) AppleWebKit/537.36 (KHTML, like Gecko) Version/4.0 Chrome/148.0.7778.215 Mobile Safari/537.36","328","588","240","","4320","<div class=""prompt"" style=""font-size:24px; margin-bottom:20px;"">Which word describes you more?</div>","0","pairing","21","hopeful","courteous","PosPos","85","87","positive","positive","2","hopeful","left","true"
"html-keyboard-response","44","77131","0.0-2.0-0.21","1098","41","post","4","afternoon","2026-05-20","2026-06-01","2026-06-04T19:02:17.207Z","Mozilla/5.0 (Linux; Android 16; SM-S901U Build/BP2A.250605.031.A3; wv) AppleWebKit/537.36 (KHTML, like Gecko) Version/4.0 Chrome/148.0.7778.215 Mobile Safari/537.36","328","588","240","","null","<div style=""font-size:60px;"">+</div>","null","fixation","","","","","","","","","","","",""
"html-button-response","45","79424","0.0-2.0-1.21","1098","41","post","4","afternoon","2026-05-20","2026-06-01","2026-06-04T19:02:17.207Z","Mozilla/5.0 (Linux; Android 16; SM-S901U Build/BP2A.250605.031.A3; wv) AppleWebKit/537.36 (KHTML, like Gecko) Version/4.0 Chrome/148.0.7778.215 Mobile Safari/537.36","328","588","240","","2287","<div class=""prompt"" style=""font-size:24px; margin-bottom:20px;"">Which word describes you more?</div>","1","pairing","22","legendary","jealous","PosNeg","45","84","positive","negative","39","jealous","right","true"
"html-keyboard-response","46","80226","0.0-2.0-0.22","1098","41","post","4","afternoon","2026-05-20","2026-06-01","2026-06-04T19:02:17.207Z","Mozilla/5.0 (Linux; Android 16; SM-S901U Build/BP2A.250605.031.A3; wv) AppleWebKit/537.36 (KHTML, like Gecko) Version/4.0 Chrome/148.0.7778.215 Mobile Safari/537.36","328","588","240","","null","<div style=""font-size:60px;"">+</div>","null","fixation","","","","","","","","","","","",""
"html-button-response","47","82335","0.0-2.0-1.22","1098","41","post","4","afternoon","2026-05-20","2026-06-01","2026-06-04T19:02:17.207Z","Mozilla/5.0 (Linux; Android 16; SM-S901U Build/BP2A.250605.031.A3; wv) AppleWebKit/537.36 (KHTML, like Gecko) Version/4.0 Chrome/148.0.7778.215 Mobile Safari/537.36","328","588","240","","2106","<div class=""prompt"" style=""font-size:24px; margin-bottom:20px;"">Which word describes you more?</div>","1","pairing","23","rude","flawless","PosNeg","47","21","negative","positive","26","flawless","right","true"
"html-keyboard-response","48","83137","0.0-2.0-0.23","1098","41","post","4","afternoon","2026-05-20","2026-06-01","2026-06-04T19:02:17.207Z","Mozilla/5.0 (Linux; Android 16; SM-S901U Build/BP2A.250605.031.A3; wv) AppleWebKit/537.36 (KHTML, like Gecko) Version/4.0 Chrome/148.0.7778.215 Mobile Safari/537.36","328","588","240","","null","<div style=""font-size:60px;"">+</div>","null","fixation","","","","","","","","","","","",""
"html-button-response","49","85412","0.0-2.0-1.23","1098","41","post","4","afternoon","2026-05-20","2026-06-01","2026-06-04T19:02:17.207Z","Mozilla/5.0 (Linux; Android 16; SM-S901U Build/BP2A.250605.031.A3; wv) AppleWebKit/537.36 (KHTML, like Gecko) Version/4.0 Chrome/148.0.7778.215 Mobile Safari/537.36","328","588","240","","2274","<div class=""prompt"" style=""font-size:24px; margin-bottom:20px;"">Which word describes you more?</div>","1","pairing","24","boring","awkward","NegNeg","20","92","negative","negative","72","awkward","right","true"
"instructions","50","86192","0.0-3.0","1098","41","post","4","afternoon","2026-05-20","2026-06-01","2026-06-04T19:02:17.207Z","Mozilla/5.0 (Linux; Android 16; SM-S901U Build/BP2A.250605.031.A3; wv) AppleWebKit/537.36 (KHTML, like Gecko) Version/4.0 Chrome/148.0.7778.215 Mobile Safari/537.36","328","588","240","[{""page_index"":0,""viewing_time"":778}]","779","","","","","","","","","","","","","","",""
