"trial_type","trial_index","time_elapsed","internal_node_id","PUNS_ID","session_number","session_phase","session_day","session_slot","ema_start_date","ema_post_start_date","experiment_start","browser","screen_width","screen_height","timezone_offset","view_history","rt","stimulus","response","which_experiment_phase","trial_number","left_word","right_word","valence","left_base_rating","right_base_rating","left_valence","right_valence","abs_diff","participant_response","chosen_side","valid_response"
"pavlovia","0","1461","0.0-0.0","1071","35","post","2","afternoon","2026-06-09","2026-06-23","2026-06-24T16:22:14.869Z","Mozilla/5.0 (iPhone; CPU iPhone OS 18_7 like Mac OS X) AppleWebKit/605.1.15 (KHTML, like Gecko) Mobile/15E148","408","733","240","","","","","","","","","","","","","","","","",""
"instructions","1","62577","0.0-1.0","1071","35","post","2","afternoon","2026-06-09","2026-06-23","2026-06-24T16:22:14.869Z","Mozilla/5.0 (iPhone; CPU iPhone OS 18_7 like Mac OS X) AppleWebKit/605.1.15 (KHTML, like Gecko) Mobile/15E148","408","733","240","[{""page_index"":0,""viewing_time"":57766},{""page_index"":1,""viewing_time"":1031},{""page_index"":2,""viewing_time"":914},{""page_index"":3,""viewing_time"":1403}]","61114","","","","","","","","","","","","","","",""
"html-keyboard-response","2","63382","0.0-2.0-0.0","1071","35","post","2","afternoon","2026-06-09","2026-06-23","2026-06-24T16:22:14.869Z","Mozilla/5.0 (iPhone; CPU iPhone OS 18_7 like Mac OS X) AppleWebKit/605.1.15 (KHTML, like Gecko) Mobile/15E148","408","733","240","","null","<div style=""font-size:60px;"">+</div>","null","fixation","","","","","","","","","","","",""
"html-button-response","3","64890","0.0-2.0-1.0","1071","35","post","2","afternoon","2026-06-09","2026-06-23","2026-06-24T16:22:14.869Z","Mozilla/5.0 (iPhone; CPU iPhone OS 18_7 like Mac OS X) AppleWebKit/605.1.15 (KHTML, like Gecko) Mobile/15E148","408","733","240","","1500","<div class=""prompt"" style=""font-size:24px; margin-bottom:20px;"">Which word describes you more?</div>","0","pairing","1","tolerant","anxious","PosNeg","18","61","positive","negative","43","tolerant","left","true"
"html-keyboard-response","4","65693","0.0-2.0-0.1","1071","35","post","2","afternoon","2026-06-09","2026-06-23","2026-06-24T16:22:14.869Z","Mozilla/5.0 (iPhone; CPU iPhone OS 18_7 like Mac OS X) AppleWebKit/605.1.15 (KHTML, like Gecko) Mobile/15E148","408","733","240","","null","<div style=""font-size:60px;"">+</div>","null","fixation","","","","","","","","","","","",""
"html-button-response","5","66478","0.0-2.0-1.1","1071","35","post","2","afternoon","2026-06-09","2026-06-23","2026-06-24T16:22:14.869Z","Mozilla/5.0 (iPhone; CPU iPhone OS 18_7 like Mac OS X) AppleWebKit/605.1.15 (KHTML, like Gecko) Mobile/15E148","408","733","240","","781","<div class=""prompt"" style=""font-size:24px; margin-bottom:20px;"">Which word describes you more?</div>","0","pairing","2","tolerant","selfish","PosNeg","18","24","positive","negative","6","tolerant","left","true"
"html-keyboard-response","6","67280","0.0-2.0-0.2","1071","35","post","2","afternoon","2026-06-09","2026-06-23","2026-06-24T16:22:14.869Z","Mozilla/5.0 (iPhone; CPU iPhone OS 18_7 like Mac OS X) AppleWebKit/605.1.15 (KHTML, like Gecko) Mobile/15E148","408","733","240","","null","<div style=""font-size:60px;"">+</div>","null","fixation","","","","","","","","","","","",""
"html-button-response","7","68094","0.0-2.0-1.2","1071","35","post","2","afternoon","2026-06-09","2026-06-23","2026-06-24T16:22:14.869Z","Mozilla/5.0 (iPhone; CPU iPhone OS 18_7 like Mac OS X) AppleWebKit/605.1.15 (KHTML, like Gecko) Mobile/15E148","408","733","240","","812","<div class=""prompt"" style=""font-size:24px; margin-bottom:20px;"">Which word describes you more?</div>","0","pairing","3","anxious","seeker","PosNeg","61","18","negative","positive","43","anxious","left","true"
"html-keyboard-response","8","68898","0.0-2.0-0.3","1071","35","post","2","afternoon","2026-06-09","2026-06-23","2026-06-24T16:22:14.869Z","Mozilla/5.0 (iPhone; CPU iPhone OS 18_7 like Mac OS X) AppleWebKit/605.1.15 (KHTML, like Gecko) Mobile/15E148","408","733","240","","null","<div style=""font-size:60px;"">+</div>","null","fixation","","","","","","","","","","","",""
"html-button-response","9","69752","0.0-2.0-1.3","1071","35","post","2","afternoon","2026-06-09","2026-06-23","2026-06-24T16:22:14.869Z","Mozilla/5.0 (iPhone; CPU iPhone OS 18_7 like Mac OS X) AppleWebKit/605.1.15 (KHTML, like Gecko) Mobile/15E148","408","733","240","","852","<div class=""prompt"" style=""font-size:24px; margin-bottom:20px;"">Which word describes you more?</div>","1","pairing","4","hopeless","anxious","NegNeg","12","61","negative","negative","49","anxious","right","true"
"html-keyboard-response","10","70554","0.0-2.0-0.4","1071","35","post","2","afternoon","2026-06-09","2026-06-23","2026-06-24T16:22:14.869Z","Mozilla/5.0 (iPhone; CPU iPhone OS 18_7 like Mac OS X) AppleWebKit/605.1.15 (KHTML, like Gecko) Mobile/15E148","408","733","240","","null","<div style=""font-size:60px;"">+</div>","null","fixation","","","","","","","","","","","",""
"html-button-response","11","71435","0.0-2.0-1.4","1071","35","post","2","afternoon","2026-06-09","2026-06-23","2026-06-24T16:22:14.869Z","Mozilla/5.0 (iPhone; CPU iPhone OS 18_7 like Mac OS X) AppleWebKit/605.1.15 (KHTML, like Gecko) Mobile/15E148","408","733","240","","879","<div class=""prompt"" style=""font-size:24px; margin-bottom:20px;"">Which word describes you more?</div>","1","pairing","5","learner","entertaining","PosPos","65","80","positive","positive","15","entertaining","right","true"
"html-keyboard-response","12","72238","0.0-2.0-0.5","1071","35","post","2","afternoon","2026-06-09","2026-06-23","2026-06-24T16:22:14.869Z","Mozilla/5.0 (iPhone; CPU iPhone OS 18_7 like Mac OS X) AppleWebKit/605.1.15 (KHTML, like Gecko) Mobile/15E148","408","733","240","","null","<div style=""font-size:60px;"">+</div>","null","fixation","","","","","","","","","","","",""
"html-button-response","13","73161","0.0-2.0-1.5","1071","35","post","2","afternoon","2026-06-09","2026-06-23","2026-06-24T16:22:14.869Z","Mozilla/5.0 (iPhone; CPU iPhone OS 18_7 like Mac OS X) AppleWebKit/605.1.15 (KHTML, like Gecko) Mobile/15E148","408","733","240","","922","<div class=""prompt"" style=""font-size:24px; margin-bottom:20px;"">Which word describes you more?</div>","1","pairing","6","gloomy","proficient","PosNeg","13","66","negative","positive","53","proficient","right","true"
"html-keyboard-response","14","73963","0.0-2.0-0.6","1071","35","post","2","afternoon","2026-06-09","2026-06-23","2026-06-24T16:22:14.869Z","Mozilla/5.0 (iPhone; CPU iPhone OS 18_7 like Mac OS X) AppleWebKit/605.1.15 (KHTML, like Gecko) Mobile/15E148","408","733","240","","null","<div style=""font-size:60px;"">+</div>","null","fixation","","","","","","","","","","","",""
"html-button-response","15","74950","0.0-2.0-1.6","1071","35","post","2","afternoon","2026-06-09","2026-06-23","2026-06-24T16:22:14.869Z","Mozilla/5.0 (iPhone; CPU iPhone OS 18_7 like Mac OS X) AppleWebKit/605.1.15 (KHTML, like Gecko) Mobile/15E148","408","733","240","","981","<div class=""prompt"" style=""font-size:24px; margin-bottom:20px;"">Which word describes you more?</div>","0","pairing","7","seeker","degenerate","PosNeg","18","8","positive","negative","10","seeker","left","true"
"html-keyboard-response","16","75752","0.0-2.0-0.7","1071","35","post","2","afternoon","2026-06-09","2026-06-23","2026-06-24T16:22:14.869Z","Mozilla/5.0 (iPhone; CPU iPhone OS 18_7 like Mac OS X) AppleWebKit/605.1.15 (KHTML, like Gecko) Mobile/15E148","408","733","240","","null","<div style=""font-size:60px;"">+</div>","null","fixation","","","","","","","","","","","",""
"html-button-response","17","76604","0.0-2.0-1.7","1071","35","post","2","afternoon","2026-06-09","2026-06-23","2026-06-24T16:22:14.869Z","Mozilla/5.0 (iPhone; CPU iPhone OS 18_7 like Mac OS X) AppleWebKit/605.1.15 (KHTML, like Gecko) Mobile/15E148","408","733","240","","851","<div class=""prompt"" style=""font-size:24px; margin-bottom:20px;"">Which word describes you more?</div>","1","pairing","8","fool","stingy","NegNeg","3","29","negative","negative","26","stingy","right","true"
"html-keyboard-response","18","77406","0.0-2.0-0.8","1071","35","post","2","afternoon","2026-06-09","2026-06-23","2026-06-24T16:22:14.869Z","Mozilla/5.0 (iPhone; CPU iPhone OS 18_7 like Mac OS X) AppleWebKit/605.1.15 (KHTML, like Gecko) Mobile/15E148","408","733","240","","null","<div style=""font-size:60px;"">+</div>","null","fixation","","","","","","","","","","","",""
"html-button-response","19","78369","0.0-2.0-1.8","1071","35","post","2","afternoon","2026-06-09","2026-06-23","2026-06-24T16:22:14.869Z","Mozilla/5.0 (iPhone; CPU iPhone OS 18_7 like Mac OS X) AppleWebKit/605.1.15 (KHTML, like Gecko) Mobile/15E148","408","733","240","","961","<div class=""prompt"" style=""font-size:24px; margin-bottom:20px;"">Which word describes you more?</div>","1","pairing","9","garbage","lifeless","NegNeg","16","21","negative","negative","5","lifeless","right","true"
"html-keyboard-response","20","79171","0.0-2.0-0.9","1071","35","post","2","afternoon","2026-06-09","2026-06-23","2026-06-24T16:22:14.869Z","Mozilla/5.0 (iPhone; CPU iPhone OS 18_7 like Mac OS X) AppleWebKit/605.1.15 (KHTML, like Gecko) Mobile/15E148","408","733","240","","null","<div style=""font-size:60px;"">+</div>","null","fixation","","","","","","","","","","","",""
"html-button-response","21","80220","0.0-2.0-1.9","1071","35","post","2","afternoon","2026-06-09","2026-06-23","2026-06-24T16:22:14.869Z","Mozilla/5.0 (iPhone; CPU iPhone OS 18_7 like Mac OS X) AppleWebKit/605.1.15 (KHTML, like Gecko) Mobile/15E148","408","733","240","","1048","<div class=""prompt"" style=""font-size:24px; margin-bottom:20px;"">Which word describes you more?</div>","1","pairing","10","phony","alone","NegNeg","9","13","negative","negative","4","alone","right","true"
"html-keyboard-response","22","81022","0.0-2.0-0.10","1071","35","post","2","afternoon","2026-06-09","2026-06-23","2026-06-24T16:22:14.869Z","Mozilla/5.0 (iPhone; CPU iPhone OS 18_7 like Mac OS X) AppleWebKit/605.1.15 (KHTML, like Gecko) Mobile/15E148","408","733","240","","null","<div style=""font-size:60px;"">+</div>","null","fixation","","","","","","","","","","","",""
"html-button-response","23","81820","0.0-2.0-1.10","1071","35","post","2","afternoon","2026-06-09","2026-06-23","2026-06-24T16:22:14.869Z","Mozilla/5.0 (iPhone; CPU iPhone OS 18_7 like Mac OS X) AppleWebKit/605.1.15 (KHTML, like Gecko) Mobile/15E148","408","733","240","","795","<div class=""prompt"" style=""font-size:24px; margin-bottom:20px;"">Which word describes you more?</div>","0","pairing","11","successful","bitter","PosNeg","79","12","positive","negative","67","successful","left","true"
"html-keyboard-response","24","82623","0.0-2.0-0.11","1071","35","post","2","afternoon","2026-06-09","2026-06-23","2026-06-24T16:22:14.869Z","Mozilla/5.0 (iPhone; CPU iPhone OS 18_7 like Mac OS X) AppleWebKit/605.1.15 (KHTML, like Gecko) Mobile/15E148","408","733","240","","null","<div style=""font-size:60px;"">+</div>","null","fixation","","","","","","","","","","","",""
"html-button-response","25","83620","0.0-2.0-1.11","1071","35","post","2","afternoon","2026-06-09","2026-06-23","2026-06-24T16:22:14.869Z","Mozilla/5.0 (iPhone; CPU iPhone OS 18_7 like Mac OS X) AppleWebKit/605.1.15 (KHTML, like Gecko) Mobile/15E148","408","733","240","","996","<div class=""prompt"" style=""font-size:24px; margin-bottom:20px;"">Which word describes you more?</div>","0","pairing","12","credible","arrogant","PosNeg","81","25","positive","negative","56","credible","left","true"
"html-keyboard-response","26","84422","0.0-2.0-0.12","1071","35","post","2","afternoon","2026-06-09","2026-06-23","2026-06-24T16:22:14.869Z","Mozilla/5.0 (iPhone; CPU iPhone OS 18_7 like Mac OS X) AppleWebKit/605.1.15 (KHTML, like Gecko) Mobile/15E148","408","733","240","","null","<div style=""font-size:60px;"">+</div>","null","fixation","","","","","","","","","","","",""
"html-button-response","27","85271","0.0-2.0-1.12","1071","35","post","2","afternoon","2026-06-09","2026-06-23","2026-06-24T16:22:14.869Z","Mozilla/5.0 (iPhone; CPU iPhone OS 18_7 like Mac OS X) AppleWebKit/605.1.15 (KHTML, like Gecko) Mobile/15E148","408","733","240","","847","<div class=""prompt"" style=""font-size:24px; margin-bottom:20px;"">Which word describes you more?</div>","0","pairing","13","decisive","heartbroken","PosNeg","63","0","positive","negative","63","decisive","left","true"
"html-keyboard-response","28","86072","0.0-2.0-0.13","1071","35","post","2","afternoon","2026-06-09","2026-06-23","2026-06-24T16:22:14.869Z","Mozilla/5.0 (iPhone; CPU iPhone OS 18_7 like Mac OS X) AppleWebKit/605.1.15 (KHTML, like Gecko) Mobile/15E148","408","733","240","","null","<div style=""font-size:60px;"">+</div>","null","fixation","","","","","","","","","","","",""
"html-button-response","29","87179","0.0-2.0-1.13","1071","35","post","2","afternoon","2026-06-09","2026-06-23","2026-06-24T16:22:14.869Z","Mozilla/5.0 (iPhone; CPU iPhone OS 18_7 like Mac OS X) AppleWebKit/605.1.15 (KHTML, like Gecko) Mobile/15E148","408","733","240","","1105","<div class=""prompt"" style=""font-size:24px; margin-bottom:20px;"">Which word describes you more?</div>","1","pairing","14","disgusting","seeker","PosNeg","0","18","negative","positive","18","seeker","right","true"
"html-keyboard-response","30","87981","0.0-2.0-0.14","1071","35","post","2","afternoon","2026-06-09","2026-06-23","2026-06-24T16:22:14.869Z","Mozilla/5.0 (iPhone; CPU iPhone OS 18_7 like Mac OS X) AppleWebKit/605.1.15 (KHTML, like Gecko) Mobile/15E148","408","733","240","","null","<div style=""font-size:60px;"">+</div>","null","fixation","","","","","","","","","","","",""
"html-button-response","31","89046","0.0-2.0-1.14","1071","35","post","2","afternoon","2026-06-09","2026-06-23","2026-06-24T16:22:14.869Z","Mozilla/5.0 (iPhone; CPU iPhone OS 18_7 like Mac OS X) AppleWebKit/605.1.15 (KHTML, like Gecko) Mobile/15E148","408","733","240","","1062","<div class=""prompt"" style=""font-size:24px; margin-bottom:20px;"">Which word describes you more?</div>","1","pairing","15","flawless","devoted","PosPos","15","88","positive","positive","73","devoted","right","true"
"html-keyboard-response","32","89848","0.0-2.0-0.15","1071","35","post","2","afternoon","2026-06-09","2026-06-23","2026-06-24T16:22:14.869Z","Mozilla/5.0 (iPhone; CPU iPhone OS 18_7 like Mac OS X) AppleWebKit/605.1.15 (KHTML, like Gecko) Mobile/15E148","408","733","240","","null","<div style=""font-size:60px;"">+</div>","null","fixation","","","","","","","","","","","",""
"html-button-response","33","91005","0.0-2.0-1.15","1071","35","post","2","afternoon","2026-06-09","2026-06-23","2026-06-24T16:22:14.869Z","Mozilla/5.0 (iPhone; CPU iPhone OS 18_7 like Mac OS X) AppleWebKit/605.1.15 (KHTML, like Gecko) Mobile/15E148","408","733","240","","1154","<div class=""prompt"" style=""font-size:24px; margin-bottom:20px;"">Which word describes you more?</div>","0","pairing","16","awkward","terrible","NegNeg","45","11","negative","negative","34","awkward","left","true"
"html-keyboard-response","34","91808","0.0-2.0-0.16","1071","35","post","2","afternoon","2026-06-09","2026-06-23","2026-06-24T16:22:14.869Z","Mozilla/5.0 (iPhone; CPU iPhone OS 18_7 like Mac OS X) AppleWebKit/605.1.15 (KHTML, like Gecko) Mobile/15E148","408","733","240","","null","<div style=""font-size:60px;"">+</div>","null","fixation","","","","","","","","","","","",""
"html-button-response","35","92696","0.0-2.0-1.16","1071","35","post","2","afternoon","2026-06-09","2026-06-23","2026-06-24T16:22:14.869Z","Mozilla/5.0 (iPhone; CPU iPhone OS 18_7 like Mac OS X) AppleWebKit/605.1.15 (KHTML, like Gecko) Mobile/15E148","408","733","240","","887","<div class=""prompt"" style=""font-size:24px; margin-bottom:20px;"">Which word describes you more?</div>","0","pairing","17","unique","flawless","PosPos","96","15","positive","positive","81","unique","left","true"
"html-keyboard-response","36","93499","0.0-2.0-0.17","1071","35","post","2","afternoon","2026-06-09","2026-06-23","2026-06-24T16:22:14.869Z","Mozilla/5.0 (iPhone; CPU iPhone OS 18_7 like Mac OS X) AppleWebKit/605.1.15 (KHTML, like Gecko) Mobile/15E148","408","733","240","","null","<div style=""font-size:60px;"">+</div>","null","fixation","","","","","","","","","","","",""
"html-button-response","37","94521","0.0-2.0-1.17","1071","35","post","2","afternoon","2026-06-09","2026-06-23","2026-06-24T16:22:14.869Z","Mozilla/5.0 (iPhone; CPU iPhone OS 18_7 like Mac OS X) AppleWebKit/605.1.15 (KHTML, like Gecko) Mobile/15E148","408","733","240","","1020","<div class=""prompt"" style=""font-size:24px; margin-bottom:20px;"">Which word describes you more?</div>","0","pairing","18","goodwilled","blissful","PosPos","78","58","positive","positive","20","goodwilled","left","true"
"html-keyboard-response","38","95322","0.0-2.0-0.18","1071","35","post","2","afternoon","2026-06-09","2026-06-23","2026-06-24T16:22:14.869Z","Mozilla/5.0 (iPhone; CPU iPhone OS 18_7 like Mac OS X) AppleWebKit/605.1.15 (KHTML, like Gecko) Mobile/15E148","408","733","240","","null","<div style=""font-size:60px;"">+</div>","null","fixation","","","","","","","","","","","",""
"html-button-response","39","96479","0.0-2.0-1.18","1071","35","post","2","afternoon","2026-06-09","2026-06-23","2026-06-24T16:22:14.869Z","Mozilla/5.0 (iPhone; CPU iPhone OS 18_7 like Mac OS X) AppleWebKit/605.1.15 (KHTML, like Gecko) Mobile/15E148","408","733","240","","1156","<div class=""prompt"" style=""font-size:24px; margin-bottom:20px;"">Which word describes you more?</div>","0","pairing","19","selfish","awful","NegNeg","24","9","negative","negative","15","selfish","left","true"
"html-keyboard-response","40","97281","0.0-2.0-0.19","1071","35","post","2","afternoon","2026-06-09","2026-06-23","2026-06-24T16:22:14.869Z","Mozilla/5.0 (iPhone; CPU iPhone OS 18_7 like Mac OS X) AppleWebKit/605.1.15 (KHTML, like Gecko) Mobile/15E148","408","733","240","","null","<div style=""font-size:60px;"">+</div>","null","fixation","","","","","","","","","","","",""
"html-button-response","41","98221","0.0-2.0-1.19","1071","35","post","2","afternoon","2026-06-09","2026-06-23","2026-06-24T16:22:14.869Z","Mozilla/5.0 (iPhone; CPU iPhone OS 18_7 like Mac OS X) AppleWebKit/605.1.15 (KHTML, like Gecko) Mobile/15E148","408","733","240","","939","<div class=""prompt"" style=""font-size:24px; margin-bottom:20px;"">Which word describes you more?</div>","1","pairing","20","liar","charming","PosNeg","11","71","negative","positive","60","charming","right","true"
"html-keyboard-response","42","99024","0.0-2.0-0.20","1071","35","post","2","afternoon","2026-06-09","2026-06-23","2026-06-24T16:22:14.869Z","Mozilla/5.0 (iPhone; CPU iPhone OS 18_7 like Mac OS X) AppleWebKit/605.1.15 (KHTML, like Gecko) Mobile/15E148","408","733","240","","null","<div style=""font-size:60px;"">+</div>","null","fixation","","","","","","","","","","","",""
"html-button-response","43","101079","0.0-2.0-1.20","1071","35","post","2","afternoon","2026-06-09","2026-06-23","2026-06-24T16:22:14.869Z","Mozilla/5.0 (iPhone; CPU iPhone OS 18_7 like Mac OS X) AppleWebKit/605.1.15 (KHTML, like Gecko) Mobile/15E148","408","733","240","","2052","<div class=""prompt"" style=""font-size:24px; margin-bottom:20px;"">Which word describes you more?</div>","0","pairing","21","awkward","appealing","PosNeg","45","30","negative","positive","15","awkward","left","true"
"html-keyboard-response","44","101883","0.0-2.0-0.21","1071","35","post","2","afternoon","2026-06-09","2026-06-23","2026-06-24T16:22:14.869Z","Mozilla/5.0 (iPhone; CPU iPhone OS 18_7 like Mac OS X) AppleWebKit/605.1.15 (KHTML, like Gecko) Mobile/15E148","408","733","240","","null","<div style=""font-size:60px;"">+</div>","null","fixation","","","","","","","","","","","",""
"html-button-response","45","102929","0.0-2.0-1.21","1071","35","post","2","afternoon","2026-06-09","2026-06-23","2026-06-24T16:22:14.869Z","Mozilla/5.0 (iPhone; CPU iPhone OS 18_7 like Mac OS X) AppleWebKit/605.1.15 (KHTML, like Gecko) Mobile/15E148","408","733","240","","1045","<div class=""prompt"" style=""font-size:24px; margin-bottom:20px;"">Which word describes you more?</div>","0","pairing","22","unique","adorable","PosPos","96","54","positive","positive","42","unique","left","true"
"html-keyboard-response","46","103731","0.0-2.0-0.22","1071","35","post","2","afternoon","2026-06-09","2026-06-23","2026-06-24T16:22:14.869Z","Mozilla/5.0 (iPhone; CPU iPhone OS 18_7 like Mac OS X) AppleWebKit/605.1.15 (KHTML, like Gecko) Mobile/15E148","408","733","240","","null","<div style=""font-size:60px;"">+</div>","null","fixation","","","","","","","","","","","",""
"html-button-response","47","105522","0.0-2.0-1.22","1071","35","post","2","afternoon","2026-06-09","2026-06-23","2026-06-24T16:22:14.869Z","Mozilla/5.0 (iPhone; CPU iPhone OS 18_7 like Mac OS X) AppleWebKit/605.1.15 (KHTML, like Gecko) Mobile/15E148","408","733","240","","1786","<div class=""prompt"" style=""font-size:24px; margin-bottom:20px;"">Which word describes you more?</div>","1","pairing","23","headache","idealistic","PosNeg","0","75","negative","positive","75","idealistic","right","true"
"html-keyboard-response","48","106324","0.0-2.0-0.23","1071","35","post","2","afternoon","2026-06-09","2026-06-23","2026-06-24T16:22:14.869Z","Mozilla/5.0 (iPhone; CPU iPhone OS 18_7 like Mac OS X) AppleWebKit/605.1.15 (KHTML, like Gecko) Mobile/15E148","408","733","240","","null","<div style=""font-size:60px;"">+</div>","null","fixation","","","","","","","","","","","",""
"html-button-response","49","107481","0.0-2.0-1.23","1071","35","post","2","afternoon","2026-06-09","2026-06-23","2026-06-24T16:22:14.869Z","Mozilla/5.0 (iPhone; CPU iPhone OS 18_7 like Mac OS X) AppleWebKit/605.1.15 (KHTML, like Gecko) Mobile/15E148","408","733","240","","1155","<div class=""prompt"" style=""font-size:24px; margin-bottom:20px;"">Which word describes you more?</div>","1","pairing","24","flawless","resourceful","PosPos","15","52","positive","positive","37","resourceful","right","true"
"instructions","50","108546","0.0-3.0","1071","35","post","2","afternoon","2026-06-09","2026-06-23","2026-06-24T16:22:14.869Z","Mozilla/5.0 (iPhone; CPU iPhone OS 18_7 like Mac OS X) AppleWebKit/605.1.15 (KHTML, like Gecko) Mobile/15E148","408","733","240","[{""page_index"":0,""viewing_time"":1061}]","1061","","","","","","","","","","","","","","",""
