"trial_type","trial_index","time_elapsed","internal_node_id","PUNS_ID","session_number","session_phase","session_day","session_slot","ema_start_date","ema_post_start_date","experiment_start","browser","screen_width","screen_height","timezone_offset","view_history","rt","stimulus","response","which_experiment_phase","trial_number","left_word","right_word","valence","left_base_rating","right_base_rating","left_valence","right_valence","abs_diff","participant_response","chosen_side","valid_response"
"pavlovia","0","1924","0.0-0.0","1083","17","pre","6","afternoon","2026-04-15","2026-04-27","2026-04-20T22:48:16.162Z","Mozilla/5.0 (iPhone; CPU iPhone OS 18_7 like Mac OS X) AppleWebKit/605.1.15 (KHTML, like Gecko) Mobile/15E148","358","632","420","","","","","","","","","","","","","","","","",""
"instructions","1","13048","0.0-1.0","1083","17","pre","6","afternoon","2026-04-15","2026-04-27","2026-04-20T22:48:16.162Z","Mozilla/5.0 (iPhone; CPU iPhone OS 18_7 like Mac OS X) AppleWebKit/605.1.15 (KHTML, like Gecko) Mobile/15E148","358","632","420","[{""page_index"":0,""viewing_time"":2459},{""page_index"":1,""viewing_time"":6826},{""page_index"":2,""viewing_time"":1027},{""page_index"":3,""viewing_time"":804}]","11117","","","","","","","","","","","","","","",""
"html-keyboard-response","2","13853","0.0-2.0-0.0","1083","17","pre","6","afternoon","2026-04-15","2026-04-27","2026-04-20T22:48:16.162Z","Mozilla/5.0 (iPhone; CPU iPhone OS 18_7 like Mac OS X) AppleWebKit/605.1.15 (KHTML, like Gecko) Mobile/15E148","358","632","420","","null","<div style=""font-size:60px;"">+</div>","null","fixation","","","","","","","","","","","",""
"html-button-response","3","16117","0.0-2.0-1.0","1083","17","pre","6","afternoon","2026-04-15","2026-04-27","2026-04-20T22:48:16.162Z","Mozilla/5.0 (iPhone; CPU iPhone OS 18_7 like Mac OS X) AppleWebKit/605.1.15 (KHTML, like Gecko) Mobile/15E148","358","632","420","","2258","<div class=""prompt"" style=""font-size:24px; margin-bottom:20px;"">Which word describes you more?</div>","1","pairing","1","sophisticated","jealous","PosNeg","71","96","positive","negative","25","jealous","right","true"
"html-keyboard-response","4","16920","0.0-2.0-0.1","1083","17","pre","6","afternoon","2026-04-15","2026-04-27","2026-04-20T22:48:16.162Z","Mozilla/5.0 (iPhone; CPU iPhone OS 18_7 like Mac OS X) AppleWebKit/605.1.15 (KHTML, like Gecko) Mobile/15E148","358","632","420","","null","<div style=""font-size:60px;"">+</div>","null","fixation","","","","","","","","","","","",""
"html-button-response","5","18135","0.0-2.0-1.1","1083","17","pre","6","afternoon","2026-04-15","2026-04-27","2026-04-20T22:48:16.162Z","Mozilla/5.0 (iPhone; CPU iPhone OS 18_7 like Mac OS X) AppleWebKit/605.1.15 (KHTML, like Gecko) Mobile/15E148","358","632","420","","1212","<div class=""prompt"" style=""font-size:24px; margin-bottom:20px;"">Which word describes you more?</div>","0","pairing","2","companion","jealous","PosNeg","60","96","positive","negative","36","companion","left","true"
"html-keyboard-response","6","18938","0.0-2.0-0.2","1083","17","pre","6","afternoon","2026-04-15","2026-04-27","2026-04-20T22:48:16.162Z","Mozilla/5.0 (iPhone; CPU iPhone OS 18_7 like Mac OS X) AppleWebKit/605.1.15 (KHTML, like Gecko) Mobile/15E148","358","632","420","","null","<div style=""font-size:60px;"">+</div>","null","fixation","","","","","","","","","","","",""
"html-button-response","7","21190","0.0-2.0-1.2","1083","17","pre","6","afternoon","2026-04-15","2026-04-27","2026-04-20T22:48:16.162Z","Mozilla/5.0 (iPhone; CPU iPhone OS 18_7 like Mac OS X) AppleWebKit/605.1.15 (KHTML, like Gecko) Mobile/15E148","358","632","420","","2249","<div class=""prompt"" style=""font-size:24px; margin-bottom:20px;"">Which word describes you more?</div>","1","pairing","3","helpless","negligent","NegNeg","0","10","negative","negative","10","negligent","right","true"
"html-keyboard-response","8","21993","0.0-2.0-0.3","1083","17","pre","6","afternoon","2026-04-15","2026-04-27","2026-04-20T22:48:16.162Z","Mozilla/5.0 (iPhone; CPU iPhone OS 18_7 like Mac OS X) AppleWebKit/605.1.15 (KHTML, like Gecko) Mobile/15E148","358","632","420","","null","<div style=""font-size:60px;"">+</div>","null","fixation","","","","","","","","","","","",""
"html-button-response","9","23286","0.0-2.0-1.3","1083","17","pre","6","afternoon","2026-04-15","2026-04-27","2026-04-20T22:48:16.162Z","Mozilla/5.0 (iPhone; CPU iPhone OS 18_7 like Mac OS X) AppleWebKit/605.1.15 (KHTML, like Gecko) Mobile/15E148","358","632","420","","1291","<div class=""prompt"" style=""font-size:24px; margin-bottom:20px;"">Which word describes you more?</div>","1","pairing","4","champion","hopeful","PosPos","11","50","positive","positive","39","hopeful","right","true"
"html-keyboard-response","10","24088","0.0-2.0-0.4","1083","17","pre","6","afternoon","2026-04-15","2026-04-27","2026-04-20T22:48:16.162Z","Mozilla/5.0 (iPhone; CPU iPhone OS 18_7 like Mac OS X) AppleWebKit/605.1.15 (KHTML, like Gecko) Mobile/15E148","358","632","420","","null","<div style=""font-size:60px;"">+</div>","null","fixation","","","","","","","","","","","",""
"html-button-response","11","25609","0.0-2.0-1.4","1083","17","pre","6","afternoon","2026-04-15","2026-04-27","2026-04-20T22:48:16.162Z","Mozilla/5.0 (iPhone; CPU iPhone OS 18_7 like Mac OS X) AppleWebKit/605.1.15 (KHTML, like Gecko) Mobile/15E148","358","632","420","","1518","<div class=""prompt"" style=""font-size:24px; margin-bottom:20px;"">Which word describes you more?</div>","0","pairing","5","brave","violent","PosNeg","74","1","positive","negative","73","brave","left","true"
"html-keyboard-response","12","26412","0.0-2.0-0.5","1083","17","pre","6","afternoon","2026-04-15","2026-04-27","2026-04-20T22:48:16.162Z","Mozilla/5.0 (iPhone; CPU iPhone OS 18_7 like Mac OS X) AppleWebKit/605.1.15 (KHTML, like Gecko) Mobile/15E148","358","632","420","","null","<div style=""font-size:60px;"">+</div>","null","fixation","","","","","","","","","","","",""
"html-button-response","13","27476","0.0-2.0-1.5","1083","17","pre","6","afternoon","2026-04-15","2026-04-27","2026-04-20T22:48:16.162Z","Mozilla/5.0 (iPhone; CPU iPhone OS 18_7 like Mac OS X) AppleWebKit/605.1.15 (KHTML, like Gecko) Mobile/15E148","358","632","420","","1061","<div class=""prompt"" style=""font-size:24px; margin-bottom:20px;"">Which word describes you more?</div>","1","pairing","6","pest","valued","PosNeg","0","82","negative","positive","82","valued","right","true"
"html-keyboard-response","14","28279","0.0-2.0-0.6","1083","17","pre","6","afternoon","2026-04-15","2026-04-27","2026-04-20T22:48:16.162Z","Mozilla/5.0 (iPhone; CPU iPhone OS 18_7 like Mac OS X) AppleWebKit/605.1.15 (KHTML, like Gecko) Mobile/15E148","358","632","420","","null","<div style=""font-size:60px;"">+</div>","null","fixation","","","","","","","","","","","",""
"html-button-response","15","30496","0.0-2.0-1.6","1083","17","pre","6","afternoon","2026-04-15","2026-04-27","2026-04-20T22:48:16.162Z","Mozilla/5.0 (iPhone; CPU iPhone OS 18_7 like Mac OS X) AppleWebKit/605.1.15 (KHTML, like Gecko) Mobile/15E148","358","632","420","","2213","<div class=""prompt"" style=""font-size:24px; margin-bottom:20px;"">Which word describes you more?</div>","1","pairing","7","disgusting","peaceful","PosNeg","0","52","negative","positive","52","peaceful","right","true"
"html-keyboard-response","16","31298","0.0-2.0-0.7","1083","17","pre","6","afternoon","2026-04-15","2026-04-27","2026-04-20T22:48:16.162Z","Mozilla/5.0 (iPhone; CPU iPhone OS 18_7 like Mac OS X) AppleWebKit/605.1.15 (KHTML, like Gecko) Mobile/15E148","358","632","420","","null","<div style=""font-size:60px;"">+</div>","null","fixation","","","","","","","","","","","",""
"html-button-response","17","34085","0.0-2.0-1.7","1083","17","pre","6","afternoon","2026-04-15","2026-04-27","2026-04-20T22:48:16.162Z","Mozilla/5.0 (iPhone; CPU iPhone OS 18_7 like Mac OS X) AppleWebKit/605.1.15 (KHTML, like Gecko) Mobile/15E148","358","632","420","","2780","<div class=""prompt"" style=""font-size:24px; margin-bottom:20px;"">Which word describes you more?</div>","1","pairing","8","quitter","insecure","NegNeg","23","96","negative","negative","73","insecure","right","true"
"html-keyboard-response","18","34889","0.0-2.0-0.8","1083","17","pre","6","afternoon","2026-04-15","2026-04-27","2026-04-20T22:48:16.162Z","Mozilla/5.0 (iPhone; CPU iPhone OS 18_7 like Mac OS X) AppleWebKit/605.1.15 (KHTML, like Gecko) Mobile/15E148","358","632","420","","null","<div style=""font-size:60px;"">+</div>","null","fixation","","","","","","","","","","","",""
"html-button-response","19","36386","0.0-2.0-1.8","1083","17","pre","6","afternoon","2026-04-15","2026-04-27","2026-04-20T22:48:16.162Z","Mozilla/5.0 (iPhone; CPU iPhone OS 18_7 like Mac OS X) AppleWebKit/605.1.15 (KHTML, like Gecko) Mobile/15E148","358","632","420","","1494","<div class=""prompt"" style=""font-size:24px; margin-bottom:20px;"">Which word describes you more?</div>","1","pairing","9","negligent","carefree","PosNeg","10","0","negative","positive","10","carefree","right","true"
"html-keyboard-response","20","37189","0.0-2.0-0.9","1083","17","pre","6","afternoon","2026-04-15","2026-04-27","2026-04-20T22:48:16.162Z","Mozilla/5.0 (iPhone; CPU iPhone OS 18_7 like Mac OS X) AppleWebKit/605.1.15 (KHTML, like Gecko) Mobile/15E148","358","632","420","","null","<div style=""font-size:60px;"">+</div>","null","fixation","","","","","","","","","","","",""
"html-button-response","21","40155","0.0-2.0-1.9","1083","17","pre","6","afternoon","2026-04-15","2026-04-27","2026-04-20T22:48:16.162Z","Mozilla/5.0 (iPhone; CPU iPhone OS 18_7 like Mac OS X) AppleWebKit/605.1.15 (KHTML, like Gecko) Mobile/15E148","358","632","420","","2963","<div class=""prompt"" style=""font-size:24px; margin-bottom:20px;"">Which word describes you more?</div>","1","pairing","10","admired","jealous","PosNeg","29","96","positive","negative","67","jealous","right","true"
"html-keyboard-response","22","40957","0.0-2.0-0.10","1083","17","pre","6","afternoon","2026-04-15","2026-04-27","2026-04-20T22:48:16.162Z","Mozilla/5.0 (iPhone; CPU iPhone OS 18_7 like Mac OS X) AppleWebKit/605.1.15 (KHTML, like Gecko) Mobile/15E148","358","632","420","","null","<div style=""font-size:60px;"">+</div>","null","fixation","","","","","","","","","","","",""
"html-button-response","23","43339","0.0-2.0-1.10","1083","17","pre","6","afternoon","2026-04-15","2026-04-27","2026-04-20T22:48:16.162Z","Mozilla/5.0 (iPhone; CPU iPhone OS 18_7 like Mac OS X) AppleWebKit/605.1.15 (KHTML, like Gecko) Mobile/15E148","358","632","420","","2379","<div class=""prompt"" style=""font-size:24px; margin-bottom:20px;"">Which word describes you more?</div>","1","pairing","11","anxious","carefree","PosNeg","70","0","negative","positive","70","carefree","right","true"
"html-keyboard-response","24","44141","0.0-2.0-0.11","1083","17","pre","6","afternoon","2026-04-15","2026-04-27","2026-04-20T22:48:16.162Z","Mozilla/5.0 (iPhone; CPU iPhone OS 18_7 like Mac OS X) AppleWebKit/605.1.15 (KHTML, like Gecko) Mobile/15E148","358","632","420","","null","<div style=""font-size:60px;"">+</div>","null","fixation","","","","","","","","","","","",""
"html-button-response","25","47163","0.0-2.0-1.11","1083","17","pre","6","afternoon","2026-04-15","2026-04-27","2026-04-20T22:48:16.162Z","Mozilla/5.0 (iPhone; CPU iPhone OS 18_7 like Mac OS X) AppleWebKit/605.1.15 (KHTML, like Gecko) Mobile/15E148","358","632","420","","3019","<div class=""prompt"" style=""font-size:24px; margin-bottom:20px;"">Which word describes you more?</div>","0","pairing","12","anxious","admired","PosNeg","70","29","negative","positive","41","anxious","left","true"
"html-keyboard-response","26","47965","0.0-2.0-0.12","1083","17","pre","6","afternoon","2026-04-15","2026-04-27","2026-04-20T22:48:16.162Z","Mozilla/5.0 (iPhone; CPU iPhone OS 18_7 like Mac OS X) AppleWebKit/605.1.15 (KHTML, like Gecko) Mobile/15E148","358","632","420","","null","<div style=""font-size:60px;"">+</div>","null","fixation","","","","","","","","","","","",""
"html-button-response","27","51298","0.0-2.0-1.12","1083","17","pre","6","afternoon","2026-04-15","2026-04-27","2026-04-20T22:48:16.162Z","Mozilla/5.0 (iPhone; CPU iPhone OS 18_7 like Mac OS X) AppleWebKit/605.1.15 (KHTML, like Gecko) Mobile/15E148","358","632","420","","3331","<div class=""prompt"" style=""font-size:24px; margin-bottom:20px;"">Which word describes you more?</div>","1","pairing","13","enthusiastic","playful","PosPos","63","67","positive","positive","4","playful","right","true"
"html-keyboard-response","28","52100","0.0-2.0-0.13","1083","17","pre","6","afternoon","2026-04-15","2026-04-27","2026-04-20T22:48:16.162Z","Mozilla/5.0 (iPhone; CPU iPhone OS 18_7 like Mac OS X) AppleWebKit/605.1.15 (KHTML, like Gecko) Mobile/15E148","358","632","420","","null","<div style=""font-size:60px;"">+</div>","null","fixation","","","","","","","","","","","",""
"html-button-response","29","53297","0.0-2.0-1.13","1083","17","pre","6","afternoon","2026-04-15","2026-04-27","2026-04-20T22:48:16.162Z","Mozilla/5.0 (iPhone; CPU iPhone OS 18_7 like Mac OS X) AppleWebKit/605.1.15 (KHTML, like Gecko) Mobile/15E148","358","632","420","","1194","<div class=""prompt"" style=""font-size:24px; margin-bottom:20px;"">Which word describes you more?</div>","0","pairing","14","hesitant","pest","NegNeg","84","0","negative","negative","84","hesitant","left","true"
"html-keyboard-response","30","54099","0.0-2.0-0.14","1083","17","pre","6","afternoon","2026-04-15","2026-04-27","2026-04-20T22:48:16.162Z","Mozilla/5.0 (iPhone; CPU iPhone OS 18_7 like Mac OS X) AppleWebKit/605.1.15 (KHTML, like Gecko) Mobile/15E148","358","632","420","","null","<div style=""font-size:60px;"">+</div>","null","fixation","","","","","","","","","","","",""
"html-button-response","31","56267","0.0-2.0-1.14","1083","17","pre","6","afternoon","2026-04-15","2026-04-27","2026-04-20T22:48:16.162Z","Mozilla/5.0 (iPhone; CPU iPhone OS 18_7 like Mac OS X) AppleWebKit/605.1.15 (KHTML, like Gecko) Mobile/15E148","358","632","420","","2166","<div class=""prompt"" style=""font-size:24px; margin-bottom:20px;"">Which word describes you more?</div>","0","pairing","15","defective","prick","NegNeg","38","0","negative","negative","38","defective","left","true"
"html-keyboard-response","32","57070","0.0-2.0-0.15","1083","17","pre","6","afternoon","2026-04-15","2026-04-27","2026-04-20T22:48:16.162Z","Mozilla/5.0 (iPhone; CPU iPhone OS 18_7 like Mac OS X) AppleWebKit/605.1.15 (KHTML, like Gecko) Mobile/15E148","358","632","420","","null","<div style=""font-size:60px;"">+</div>","null","fixation","","","","","","","","","","","",""
"html-button-response","33","59155","0.0-2.0-1.15","1083","17","pre","6","afternoon","2026-04-15","2026-04-27","2026-04-20T22:48:16.162Z","Mozilla/5.0 (iPhone; CPU iPhone OS 18_7 like Mac OS X) AppleWebKit/605.1.15 (KHTML, like Gecko) Mobile/15E148","358","632","420","","2082","<div class=""prompt"" style=""font-size:24px; margin-bottom:20px;"">Which word describes you more?</div>","1","pairing","16","coward","anxious","NegNeg","13","70","negative","negative","57","anxious","right","true"
"html-keyboard-response","34","59958","0.0-2.0-0.16","1083","17","pre","6","afternoon","2026-04-15","2026-04-27","2026-04-20T22:48:16.162Z","Mozilla/5.0 (iPhone; CPU iPhone OS 18_7 like Mac OS X) AppleWebKit/605.1.15 (KHTML, like Gecko) Mobile/15E148","358","632","420","","null","<div style=""font-size:60px;"">+</div>","null","fixation","","","","","","","","","","","",""
"html-button-response","35","61390","0.0-2.0-1.16","1083","17","pre","6","afternoon","2026-04-15","2026-04-27","2026-04-20T22:48:16.162Z","Mozilla/5.0 (iPhone; CPU iPhone OS 18_7 like Mac OS X) AppleWebKit/605.1.15 (KHTML, like Gecko) Mobile/15E148","358","632","420","","1429","<div class=""prompt"" style=""font-size:24px; margin-bottom:20px;"">Which word describes you more?</div>","0","pairing","17","asset","garbage","PosNeg","1","0","positive","negative","1","asset","left","true"
"html-keyboard-response","36","62193","0.0-2.0-0.17","1083","17","pre","6","afternoon","2026-04-15","2026-04-27","2026-04-20T22:48:16.162Z","Mozilla/5.0 (iPhone; CPU iPhone OS 18_7 like Mac OS X) AppleWebKit/605.1.15 (KHTML, like Gecko) Mobile/15E148","358","632","420","","null","<div style=""font-size:60px;"">+</div>","null","fixation","","","","","","","","","","","",""
"html-button-response","37","63908","0.0-2.0-1.17","1083","17","pre","6","afternoon","2026-04-15","2026-04-27","2026-04-20T22:48:16.162Z","Mozilla/5.0 (iPhone; CPU iPhone OS 18_7 like Mac OS X) AppleWebKit/605.1.15 (KHTML, like Gecko) Mobile/15E148","358","632","420","","1713","<div class=""prompt"" style=""font-size:24px; margin-bottom:20px;"">Which word describes you more?</div>","1","pairing","18","asset","thoughtful","PosPos","1","84","positive","positive","83","thoughtful","right","true"
"html-keyboard-response","38","64711","0.0-2.0-0.18","1083","17","pre","6","afternoon","2026-04-15","2026-04-27","2026-04-20T22:48:16.162Z","Mozilla/5.0 (iPhone; CPU iPhone OS 18_7 like Mac OS X) AppleWebKit/605.1.15 (KHTML, like Gecko) Mobile/15E148","358","632","420","","null","<div style=""font-size:60px;"">+</div>","null","fixation","","","","","","","","","","","",""
"html-button-response","39","67005","0.0-2.0-1.18","1083","17","pre","6","afternoon","2026-04-15","2026-04-27","2026-04-20T22:48:16.162Z","Mozilla/5.0 (iPhone; CPU iPhone OS 18_7 like Mac OS X) AppleWebKit/605.1.15 (KHTML, like Gecko) Mobile/15E148","358","632","420","","2292","<div class=""prompt"" style=""font-size:24px; margin-bottom:20px;"">Which word describes you more?</div>","0","pairing","19","gloomy","hopeless","NegNeg","13","3","negative","negative","10","gloomy","left","true"
"html-keyboard-response","40","67807","0.0-2.0-0.19","1083","17","pre","6","afternoon","2026-04-15","2026-04-27","2026-04-20T22:48:16.162Z","Mozilla/5.0 (iPhone; CPU iPhone OS 18_7 like Mac OS X) AppleWebKit/605.1.15 (KHTML, like Gecko) Mobile/15E148","358","632","420","","null","<div style=""font-size:60px;"">+</div>","null","fixation","","","","","","","","","","","",""
"html-button-response","41","69622","0.0-2.0-1.19","1083","17","pre","6","afternoon","2026-04-15","2026-04-27","2026-04-20T22:48:16.162Z","Mozilla/5.0 (iPhone; CPU iPhone OS 18_7 like Mac OS X) AppleWebKit/605.1.15 (KHTML, like Gecko) Mobile/15E148","358","632","420","","1813","<div class=""prompt"" style=""font-size:24px; margin-bottom:20px;"">Which word describes you more?</div>","0","pairing","20","grateful","unique","PosPos","99","29","positive","positive","70","grateful","left","true"
"html-keyboard-response","42","70425","0.0-2.0-0.20","1083","17","pre","6","afternoon","2026-04-15","2026-04-27","2026-04-20T22:48:16.162Z","Mozilla/5.0 (iPhone; CPU iPhone OS 18_7 like Mac OS X) AppleWebKit/605.1.15 (KHTML, like Gecko) Mobile/15E148","358","632","420","","null","<div style=""font-size:60px;"">+</div>","null","fixation","","","","","","","","","","","",""
"html-button-response","43","72241","0.0-2.0-1.20","1083","17","pre","6","afternoon","2026-04-15","2026-04-27","2026-04-20T22:48:16.162Z","Mozilla/5.0 (iPhone; CPU iPhone OS 18_7 like Mac OS X) AppleWebKit/605.1.15 (KHTML, like Gecko) Mobile/15E148","358","632","420","","1814","<div class=""prompt"" style=""font-size:24px; margin-bottom:20px;"">Which word describes you more?</div>","0","pairing","21","hopeful","empty","PosNeg","50","1","positive","negative","49","hopeful","left","true"
"html-keyboard-response","44","73043","0.0-2.0-0.21","1083","17","pre","6","afternoon","2026-04-15","2026-04-27","2026-04-20T22:48:16.162Z","Mozilla/5.0 (iPhone; CPU iPhone OS 18_7 like Mac OS X) AppleWebKit/605.1.15 (KHTML, like Gecko) Mobile/15E148","358","632","420","","null","<div style=""font-size:60px;"">+</div>","null","fixation","","","","","","","","","","","",""
"html-button-response","45","75310","0.0-2.0-1.21","1083","17","pre","6","afternoon","2026-04-15","2026-04-27","2026-04-20T22:48:16.162Z","Mozilla/5.0 (iPhone; CPU iPhone OS 18_7 like Mac OS X) AppleWebKit/605.1.15 (KHTML, like Gecko) Mobile/15E148","358","632","420","","2264","<div class=""prompt"" style=""font-size:24px; margin-bottom:20px;"">Which word describes you more?</div>","1","pairing","22","empty","champion","PosNeg","1","11","negative","positive","10","champion","right","true"
"html-keyboard-response","46","76113","0.0-2.0-0.22","1083","17","pre","6","afternoon","2026-04-15","2026-04-27","2026-04-20T22:48:16.162Z","Mozilla/5.0 (iPhone; CPU iPhone OS 18_7 like Mac OS X) AppleWebKit/605.1.15 (KHTML, like Gecko) Mobile/15E148","358","632","420","","null","<div style=""font-size:60px;"">+</div>","null","fixation","","","","","","","","","","","",""
"html-button-response","47","78701","0.0-2.0-1.22","1083","17","pre","6","afternoon","2026-04-15","2026-04-27","2026-04-20T22:48:16.162Z","Mozilla/5.0 (iPhone; CPU iPhone OS 18_7 like Mac OS X) AppleWebKit/605.1.15 (KHTML, like Gecko) Mobile/15E148","358","632","420","","2586","<div class=""prompt"" style=""font-size:24px; margin-bottom:20px;"">Which word describes you more?</div>","0","pairing","23","helper","devoted","PosPos","95","49","positive","positive","46","helper","left","true"
"html-keyboard-response","48","79503","0.0-2.0-0.23","1083","17","pre","6","afternoon","2026-04-15","2026-04-27","2026-04-20T22:48:16.162Z","Mozilla/5.0 (iPhone; CPU iPhone OS 18_7 like Mac OS X) AppleWebKit/605.1.15 (KHTML, like Gecko) Mobile/15E148","358","632","420","","null","<div style=""font-size:60px;"">+</div>","null","fixation","","","","","","","","","","","",""
"html-button-response","49","81368","0.0-2.0-1.23","1083","17","pre","6","afternoon","2026-04-15","2026-04-27","2026-04-20T22:48:16.162Z","Mozilla/5.0 (iPhone; CPU iPhone OS 18_7 like Mac OS X) AppleWebKit/605.1.15 (KHTML, like Gecko) Mobile/15E148","358","632","420","","1862","<div class=""prompt"" style=""font-size:24px; margin-bottom:20px;"">Which word describes you more?</div>","0","pairing","24","credible","visionary","PosPos","31","16","positive","positive","15","credible","left","true"
"instructions","50","82486","0.0-3.0","1083","17","pre","6","afternoon","2026-04-15","2026-04-27","2026-04-20T22:48:16.162Z","Mozilla/5.0 (iPhone; CPU iPhone OS 18_7 like Mac OS X) AppleWebKit/605.1.15 (KHTML, like Gecko) Mobile/15E148","358","632","420","[{""page_index"":0,""viewing_time"":1116}]","1116","","","","","","","","","","","","","","",""
