"trial_type","trial_index","time_elapsed","internal_node_id","PUNS_ID","session_number","session_phase","session_day","session_slot","ema_start_date","ema_post_start_date","experiment_start","browser","screen_width","screen_height","timezone_offset","view_history","rt","stimulus","response","which_experiment_phase","trial_number","left_word","right_word","valence","left_base_rating","right_base_rating","left_valence","right_valence","abs_diff","participant_response","chosen_side","valid_response"
"pavlovia","0","2107","0.0-0.0","1021","17","pre","6","afternoon","2026-02-12","2026-02-24","2026-02-17T20:03:35.622Z","Mozilla/5.0 (iPhone; CPU iPhone OS 18_7 like Mac OS X) AppleWebKit/605.1.15 (KHTML, like Gecko) Mobile/15E148","408","729","480","","","","","","","","","","","","","","","","",""
"instructions","1","6886","0.0-1.0","1021","17","pre","6","afternoon","2026-02-12","2026-02-24","2026-02-17T20:03:35.622Z","Mozilla/5.0 (iPhone; CPU iPhone OS 18_7 like Mac OS X) AppleWebKit/605.1.15 (KHTML, like Gecko) Mobile/15E148","408","729","480","[{""page_index"":0,""viewing_time"":862},{""page_index"":1,""viewing_time"":471},{""page_index"":2,""viewing_time"":585},{""page_index"":3,""viewing_time"":1125},{""page_index"":2,""viewing_time"":1209},{""page_index"":3,""viewing_time"":525}]","4777","","","","","","","","","","","","","","",""
"html-keyboard-response","2","7689","0.0-2.0-0.0","1021","17","pre","6","afternoon","2026-02-12","2026-02-24","2026-02-17T20:03:35.622Z","Mozilla/5.0 (iPhone; CPU iPhone OS 18_7 like Mac OS X) AppleWebKit/605.1.15 (KHTML, like Gecko) Mobile/15E148","408","729","480","","null","<div style=""font-size:60px;"">+</div>","null","fixation","","","","","","","","","","","",""
"html-button-response","3","10579","0.0-2.0-1.0","1021","17","pre","6","afternoon","2026-02-12","2026-02-24","2026-02-17T20:03:35.622Z","Mozilla/5.0 (iPhone; CPU iPhone OS 18_7 like Mac OS X) AppleWebKit/605.1.15 (KHTML, like Gecko) Mobile/15E148","408","729","480","","2881","<div class=""prompt"" style=""font-size:24px; margin-bottom:20px;"">Which word describes you more?</div>","1","pairing","1","spontaneous","sophisticated","PosPos","82","95","positive","positive","13","sophisticated","right","true"
"html-keyboard-response","4","11380","0.0-2.0-0.1","1021","17","pre","6","afternoon","2026-02-12","2026-02-24","2026-02-17T20:03:35.622Z","Mozilla/5.0 (iPhone; CPU iPhone OS 18_7 like Mac OS X) AppleWebKit/605.1.15 (KHTML, like Gecko) Mobile/15E148","408","729","480","","null","<div style=""font-size:60px;"">+</div>","null","fixation","","","","","","","","","","","",""
"html-button-response","5","13143","0.0-2.0-1.1","1021","17","pre","6","afternoon","2026-02-12","2026-02-24","2026-02-17T20:03:35.622Z","Mozilla/5.0 (iPhone; CPU iPhone OS 18_7 like Mac OS X) AppleWebKit/605.1.15 (KHTML, like Gecko) Mobile/15E148","408","729","480","","1759","<div class=""prompt"" style=""font-size:24px; margin-bottom:20px;"">Which word describes you more?</div>","1","pairing","2","unbearable","burden","NegNeg","5","25","negative","negative","20","burden","right","true"
"html-keyboard-response","6","13945","0.0-2.0-0.2","1021","17","pre","6","afternoon","2026-02-12","2026-02-24","2026-02-17T20:03:35.622Z","Mozilla/5.0 (iPhone; CPU iPhone OS 18_7 like Mac OS X) AppleWebKit/605.1.15 (KHTML, like Gecko) Mobile/15E148","408","729","480","","null","<div style=""font-size:60px;"">+</div>","null","fixation","","","","","","","","","","","",""
"html-button-response","7","17762","0.0-2.0-1.2","1021","17","pre","6","afternoon","2026-02-12","2026-02-24","2026-02-17T20:03:35.622Z","Mozilla/5.0 (iPhone; CPU iPhone OS 18_7 like Mac OS X) AppleWebKit/605.1.15 (KHTML, like Gecko) Mobile/15E148","408","729","480","","3815","<div class=""prompt"" style=""font-size:24px; margin-bottom:20px;"">Which word describes you more?</div>","0","pairing","3","helper","seeker","PosPos","95","57","positive","positive","38","helper","left","true"
"html-keyboard-response","8","18564","0.0-2.0-0.3","1021","17","pre","6","afternoon","2026-02-12","2026-02-24","2026-02-17T20:03:35.622Z","Mozilla/5.0 (iPhone; CPU iPhone OS 18_7 like Mac OS X) AppleWebKit/605.1.15 (KHTML, like Gecko) Mobile/15E148","408","729","480","","null","<div style=""font-size:60px;"">+</div>","null","fixation","","","","","","","","","","","",""
"html-button-response","9","20488","0.0-2.0-1.3","1021","17","pre","6","afternoon","2026-02-12","2026-02-24","2026-02-17T20:03:35.622Z","Mozilla/5.0 (iPhone; CPU iPhone OS 18_7 like Mac OS X) AppleWebKit/605.1.15 (KHTML, like Gecko) Mobile/15E148","408","729","480","","1921","<div class=""prompt"" style=""font-size:24px; margin-bottom:20px;"">Which word describes you more?</div>","1","pairing","4","easygoing","asset","PosPos","91","96","positive","positive","5","asset","right","true"
"html-keyboard-response","10","21290","0.0-2.0-0.4","1021","17","pre","6","afternoon","2026-02-12","2026-02-24","2026-02-17T20:03:35.622Z","Mozilla/5.0 (iPhone; CPU iPhone OS 18_7 like Mac OS X) AppleWebKit/605.1.15 (KHTML, like Gecko) Mobile/15E148","408","729","480","","null","<div style=""font-size:60px;"">+</div>","null","fixation","","","","","","","","","","","",""
"html-button-response","11","23186","0.0-2.0-1.4","1021","17","pre","6","afternoon","2026-02-12","2026-02-24","2026-02-17T20:03:35.622Z","Mozilla/5.0 (iPhone; CPU iPhone OS 18_7 like Mac OS X) AppleWebKit/605.1.15 (KHTML, like Gecko) Mobile/15E148","408","729","480","","1895","<div class=""prompt"" style=""font-size:24px; margin-bottom:20px;"">Which word describes you more?</div>","1","pairing","5","repulsive","witty","PosNeg","5","89","negative","positive","84","witty","right","true"
"html-keyboard-response","12","23988","0.0-2.0-0.5","1021","17","pre","6","afternoon","2026-02-12","2026-02-24","2026-02-17T20:03:35.622Z","Mozilla/5.0 (iPhone; CPU iPhone OS 18_7 like Mac OS X) AppleWebKit/605.1.15 (KHTML, like Gecko) Mobile/15E148","408","729","480","","null","<div style=""font-size:60px;"">+</div>","null","fixation","","","","","","","","","","","",""
"html-button-response","13","27622","0.0-2.0-1.5","1021","17","pre","6","afternoon","2026-02-12","2026-02-24","2026-02-17T20:03:35.622Z","Mozilla/5.0 (iPhone; CPU iPhone OS 18_7 like Mac OS X) AppleWebKit/605.1.15 (KHTML, like Gecko) Mobile/15E148","408","729","480","","3631","<div class=""prompt"" style=""font-size:24px; margin-bottom:20px;"">Which word describes you more?</div>","1","pairing","6","sloppy","alone","NegNeg","6","44","negative","negative","38","alone","right","true"
"html-keyboard-response","14","28424","0.0-2.0-0.6","1021","17","pre","6","afternoon","2026-02-12","2026-02-24","2026-02-17T20:03:35.622Z","Mozilla/5.0 (iPhone; CPU iPhone OS 18_7 like Mac OS X) AppleWebKit/605.1.15 (KHTML, like Gecko) Mobile/15E148","408","729","480","","null","<div style=""font-size:60px;"">+</div>","null","fixation","","","","","","","","","","","",""
"html-button-response","15","30122","0.0-2.0-1.6","1021","17","pre","6","afternoon","2026-02-12","2026-02-24","2026-02-17T20:03:35.622Z","Mozilla/5.0 (iPhone; CPU iPhone OS 18_7 like Mac OS X) AppleWebKit/605.1.15 (KHTML, like Gecko) Mobile/15E148","408","729","480","","1697","<div class=""prompt"" style=""font-size:24px; margin-bottom:20px;"">Which word describes you more?</div>","0","pairing","7","heartbroken","vermin","NegNeg","41","0","negative","negative","41","heartbroken","left","true"
"html-keyboard-response","16","30924","0.0-2.0-0.7","1021","17","pre","6","afternoon","2026-02-12","2026-02-24","2026-02-17T20:03:35.622Z","Mozilla/5.0 (iPhone; CPU iPhone OS 18_7 like Mac OS X) AppleWebKit/605.1.15 (KHTML, like Gecko) Mobile/15E148","408","729","480","","null","<div style=""font-size:60px;"">+</div>","null","fixation","","","","","","","","","","","",""
"html-button-response","17","34563","0.0-2.0-1.7","1021","17","pre","6","afternoon","2026-02-12","2026-02-24","2026-02-17T20:03:35.622Z","Mozilla/5.0 (iPhone; CPU iPhone OS 18_7 like Mac OS X) AppleWebKit/605.1.15 (KHTML, like Gecko) Mobile/15E148","408","729","480","","3637","<div class=""prompt"" style=""font-size:24px; margin-bottom:20px;"">Which word describes you more?</div>","1","pairing","8","fraud","goodwilled","PosNeg","0","96","negative","positive","96","goodwilled","right","true"
"html-keyboard-response","18","35365","0.0-2.0-0.8","1021","17","pre","6","afternoon","2026-02-12","2026-02-24","2026-02-17T20:03:35.622Z","Mozilla/5.0 (iPhone; CPU iPhone OS 18_7 like Mac OS X) AppleWebKit/605.1.15 (KHTML, like Gecko) Mobile/15E148","408","729","480","","null","<div style=""font-size:60px;"">+</div>","null","fixation","","","","","","","","","","","",""
"html-button-response","19","37056","0.0-2.0-1.8","1021","17","pre","6","afternoon","2026-02-12","2026-02-24","2026-02-17T20:03:35.622Z","Mozilla/5.0 (iPhone; CPU iPhone OS 18_7 like Mac OS X) AppleWebKit/605.1.15 (KHTML, like Gecko) Mobile/15E148","408","729","480","","1689","<div class=""prompt"" style=""font-size:24px; margin-bottom:20px;"">Which word describes you more?</div>","0","pairing","9","adorable","pest","PosNeg","57","21","positive","negative","36","adorable","left","true"
"html-keyboard-response","20","37858","0.0-2.0-0.9","1021","17","pre","6","afternoon","2026-02-12","2026-02-24","2026-02-17T20:03:35.622Z","Mozilla/5.0 (iPhone; CPU iPhone OS 18_7 like Mac OS X) AppleWebKit/605.1.15 (KHTML, like Gecko) Mobile/15E148","408","729","480","","null","<div style=""font-size:60px;"">+</div>","null","fixation","","","","","","","","","","","",""
"html-button-response","21","40841","0.0-2.0-1.9","1021","17","pre","6","afternoon","2026-02-12","2026-02-24","2026-02-17T20:03:35.622Z","Mozilla/5.0 (iPhone; CPU iPhone OS 18_7 like Mac OS X) AppleWebKit/605.1.15 (KHTML, like Gecko) Mobile/15E148","408","729","480","","2981","<div class=""prompt"" style=""font-size:24px; margin-bottom:20px;"">Which word describes you more?</div>","0","pairing","10","adorable","irritating","PosNeg","57","39","positive","negative","18","adorable","left","true"
"html-keyboard-response","22","41643","0.0-2.0-0.10","1021","17","pre","6","afternoon","2026-02-12","2026-02-24","2026-02-17T20:03:35.622Z","Mozilla/5.0 (iPhone; CPU iPhone OS 18_7 like Mac OS X) AppleWebKit/605.1.15 (KHTML, like Gecko) Mobile/15E148","408","729","480","","null","<div style=""font-size:60px;"">+</div>","null","fixation","","","","","","","","","","","",""
"html-button-response","23","43348","0.0-2.0-1.10","1021","17","pre","6","afternoon","2026-02-12","2026-02-24","2026-02-17T20:03:35.622Z","Mozilla/5.0 (iPhone; CPU iPhone OS 18_7 like Mac OS X) AppleWebKit/605.1.15 (KHTML, like Gecko) Mobile/15E148","408","729","480","","1703","<div class=""prompt"" style=""font-size:24px; margin-bottom:20px;"">Which word describes you more?</div>","0","pairing","11","safe","hateful","PosNeg","98","5","positive","negative","93","safe","left","true"
"html-keyboard-response","24","44150","0.0-2.0-0.11","1021","17","pre","6","afternoon","2026-02-12","2026-02-24","2026-02-17T20:03:35.622Z","Mozilla/5.0 (iPhone; CPU iPhone OS 18_7 like Mac OS X) AppleWebKit/605.1.15 (KHTML, like Gecko) Mobile/15E148","408","729","480","","null","<div style=""font-size:60px;"">+</div>","null","fixation","","","","","","","","","","","",""
"html-button-response","25","47273","0.0-2.0-1.11","1021","17","pre","6","afternoon","2026-02-12","2026-02-24","2026-02-17T20:03:35.622Z","Mozilla/5.0 (iPhone; CPU iPhone OS 18_7 like Mac OS X) AppleWebKit/605.1.15 (KHTML, like Gecko) Mobile/15E148","408","729","480","","3121","<div class=""prompt"" style=""font-size:24px; margin-bottom:20px;"">Which word describes you more?</div>","1","pairing","12","failure","eloquent","PosNeg","2","92","negative","positive","90","eloquent","right","true"
"html-keyboard-response","26","48075","0.0-2.0-0.12","1021","17","pre","6","afternoon","2026-02-12","2026-02-24","2026-02-17T20:03:35.622Z","Mozilla/5.0 (iPhone; CPU iPhone OS 18_7 like Mac OS X) AppleWebKit/605.1.15 (KHTML, like Gecko) Mobile/15E148","408","729","480","","null","<div style=""font-size:60px;"">+</div>","null","fixation","","","","","","","","","","","",""
"html-button-response","27","51281","0.0-2.0-1.12","1021","17","pre","6","afternoon","2026-02-12","2026-02-24","2026-02-17T20:03:35.622Z","Mozilla/5.0 (iPhone; CPU iPhone OS 18_7 like Mac OS X) AppleWebKit/605.1.15 (KHTML, like Gecko) Mobile/15E148","408","729","480","","3204","<div class=""prompt"" style=""font-size:24px; margin-bottom:20px;"">Which word describes you more?</div>","1","pairing","13","anxious","seeker","PosNeg","65","57","negative","positive","8","seeker","right","true"
"html-keyboard-response","28","52083","0.0-2.0-0.13","1021","17","pre","6","afternoon","2026-02-12","2026-02-24","2026-02-17T20:03:35.622Z","Mozilla/5.0 (iPhone; CPU iPhone OS 18_7 like Mac OS X) AppleWebKit/605.1.15 (KHTML, like Gecko) Mobile/15E148","408","729","480","","null","<div style=""font-size:60px;"">+</div>","null","fixation","","","","","","","","","","","",""
"html-button-response","29","56091","0.0-2.0-1.13","1021","17","pre","6","afternoon","2026-02-12","2026-02-24","2026-02-17T20:03:35.622Z","Mozilla/5.0 (iPhone; CPU iPhone OS 18_7 like Mac OS X) AppleWebKit/605.1.15 (KHTML, like Gecko) Mobile/15E148","408","729","480","","4006","<div class=""prompt"" style=""font-size:24px; margin-bottom:20px;"">Which word describes you more?</div>","0","pairing","14","irritating","malicious","NegNeg","39","21","negative","negative","18","irritating","left","true"
"html-keyboard-response","30","56893","0.0-2.0-0.14","1021","17","pre","6","afternoon","2026-02-12","2026-02-24","2026-02-17T20:03:35.622Z","Mozilla/5.0 (iPhone; CPU iPhone OS 18_7 like Mac OS X) AppleWebKit/605.1.15 (KHTML, like Gecko) Mobile/15E148","408","729","480","","null","<div style=""font-size:60px;"">+</div>","null","fixation","","","","","","","","","","","",""
"html-button-response","31","59149","0.0-2.0-1.14","1021","17","pre","6","afternoon","2026-02-12","2026-02-24","2026-02-17T20:03:35.622Z","Mozilla/5.0 (iPhone; CPU iPhone OS 18_7 like Mac OS X) AppleWebKit/605.1.15 (KHTML, like Gecko) Mobile/15E148","408","729","480","","2254","<div class=""prompt"" style=""font-size:24px; margin-bottom:20px;"">Which word describes you more?</div>","0","pairing","15","resourceful","violent","PosNeg","91","43","positive","negative","48","resourceful","left","true"
"html-keyboard-response","32","59951","0.0-2.0-0.15","1021","17","pre","6","afternoon","2026-02-12","2026-02-24","2026-02-17T20:03:35.622Z","Mozilla/5.0 (iPhone; CPU iPhone OS 18_7 like Mac OS X) AppleWebKit/605.1.15 (KHTML, like Gecko) Mobile/15E148","408","729","480","","null","<div style=""font-size:60px;"">+</div>","null","fixation","","","","","","","","","","","",""
"html-button-response","33","63158","0.0-2.0-1.15","1021","17","pre","6","afternoon","2026-02-12","2026-02-24","2026-02-17T20:03:35.622Z","Mozilla/5.0 (iPhone; CPU iPhone OS 18_7 like Mac OS X) AppleWebKit/605.1.15 (KHTML, like Gecko) Mobile/15E148","408","729","480","","3205","<div class=""prompt"" style=""font-size:24px; margin-bottom:20px;"">Which word describes you more?</div>","1","pairing","16","slob","awful","NegNeg","1","6","negative","negative","5","awful","right","true"
"html-keyboard-response","34","63960","0.0-2.0-0.16","1021","17","pre","6","afternoon","2026-02-12","2026-02-24","2026-02-17T20:03:35.622Z","Mozilla/5.0 (iPhone; CPU iPhone OS 18_7 like Mac OS X) AppleWebKit/605.1.15 (KHTML, like Gecko) Mobile/15E148","408","729","480","","null","<div style=""font-size:60px;"">+</div>","null","fixation","","","","","","","","","","","",""
"html-button-response","35","68962","0.0-2.0-1.16","1021","17","pre","6","afternoon","2026-02-12","2026-02-24","2026-02-17T20:03:35.622Z","Mozilla/5.0 (iPhone; CPU iPhone OS 18_7 like Mac OS X) AppleWebKit/605.1.15 (KHTML, like Gecko) Mobile/15E148","408","729","480","","null","<div class=""prompt"" style=""font-size:24px; margin-bottom:20px;"">Which word describes you more?</div>","null","pairing","17","flawless","anxious","PosNeg","60","65","positive","negative","5","null","null","false"
"html-keyboard-response","36","69770","0.0-2.0-0.17","1021","17","pre","6","afternoon","2026-02-12","2026-02-24","2026-02-17T20:03:35.622Z","Mozilla/5.0 (iPhone; CPU iPhone OS 18_7 like Mac OS X) AppleWebKit/605.1.15 (KHTML, like Gecko) Mobile/15E148","408","729","480","","null","<div style=""font-size:60px;"">+</div>","null","fixation","","","","","","","","","","","",""
"html-button-response","37","74652","0.0-2.0-1.17","1021","17","pre","6","afternoon","2026-02-12","2026-02-24","2026-02-17T20:03:35.622Z","Mozilla/5.0 (iPhone; CPU iPhone OS 18_7 like Mac OS X) AppleWebKit/605.1.15 (KHTML, like Gecko) Mobile/15E148","408","729","480","","4882","<div class=""prompt"" style=""font-size:24px; margin-bottom:20px;"">Which word describes you more?</div>","1","pairing","18","smart","visionary","PosPos","96","99","positive","positive","3","visionary","right","true"
"html-keyboard-response","38","75454","0.0-2.0-0.18","1021","17","pre","6","afternoon","2026-02-12","2026-02-24","2026-02-17T20:03:35.622Z","Mozilla/5.0 (iPhone; CPU iPhone OS 18_7 like Mac OS X) AppleWebKit/605.1.15 (KHTML, like Gecko) Mobile/15E148","408","729","480","","null","<div style=""font-size:60px;"">+</div>","null","fixation","","","","","","","","","","","",""
"html-button-response","39","77000","0.0-2.0-1.18","1021","17","pre","6","afternoon","2026-02-12","2026-02-24","2026-02-17T20:03:35.622Z","Mozilla/5.0 (iPhone; CPU iPhone OS 18_7 like Mac OS X) AppleWebKit/605.1.15 (KHTML, like Gecko) Mobile/15E148","408","729","480","","1545","<div class=""prompt"" style=""font-size:24px; margin-bottom:20px;"">Which word describes you more?</div>","1","pairing","19","violent","eloquent","PosNeg","43","92","negative","positive","49","eloquent","right","true"
"html-keyboard-response","40","77802","0.0-2.0-0.19","1021","17","pre","6","afternoon","2026-02-12","2026-02-24","2026-02-17T20:03:35.622Z","Mozilla/5.0 (iPhone; CPU iPhone OS 18_7 like Mac OS X) AppleWebKit/605.1.15 (KHTML, like Gecko) Mobile/15E148","408","729","480","","null","<div style=""font-size:60px;"">+</div>","null","fixation","","","","","","","","","","","",""
"html-button-response","41","82251","0.0-2.0-1.19","1021","17","pre","6","afternoon","2026-02-12","2026-02-24","2026-02-17T20:03:35.622Z","Mozilla/5.0 (iPhone; CPU iPhone OS 18_7 like Mac OS X) AppleWebKit/605.1.15 (KHTML, like Gecko) Mobile/15E148","408","729","480","","4447","<div class=""prompt"" style=""font-size:24px; margin-bottom:20px;"">Which word describes you more?</div>","1","pairing","20","anxious","legendary","PosNeg","65","87","negative","positive","22","legendary","right","true"
"html-keyboard-response","42","83053","0.0-2.0-0.20","1021","17","pre","6","afternoon","2026-02-12","2026-02-24","2026-02-17T20:03:35.622Z","Mozilla/5.0 (iPhone; CPU iPhone OS 18_7 like Mac OS X) AppleWebKit/605.1.15 (KHTML, like Gecko) Mobile/15E148","408","729","480","","null","<div style=""font-size:60px;"">+</div>","null","fixation","","","","","","","","","","","",""
"html-button-response","43","85034","0.0-2.0-1.20","1021","17","pre","6","afternoon","2026-02-12","2026-02-24","2026-02-17T20:03:35.622Z","Mozilla/5.0 (iPhone; CPU iPhone OS 18_7 like Mac OS X) AppleWebKit/605.1.15 (KHTML, like Gecko) Mobile/15E148","408","729","480","","1979","<div class=""prompt"" style=""font-size:24px; margin-bottom:20px;"">Which word describes you more?</div>","0","pairing","21","hopeful","immoral","PosNeg","97","4","positive","negative","93","hopeful","left","true"
"html-keyboard-response","44","85837","0.0-2.0-0.21","1021","17","pre","6","afternoon","2026-02-12","2026-02-24","2026-02-17T20:03:35.622Z","Mozilla/5.0 (iPhone; CPU iPhone OS 18_7 like Mac OS X) AppleWebKit/605.1.15 (KHTML, like Gecko) Mobile/15E148","408","729","480","","null","<div style=""font-size:60px;"">+</div>","null","fixation","","","","","","","","","","","",""
"html-button-response","45","89085","0.0-2.0-1.21","1021","17","pre","6","afternoon","2026-02-12","2026-02-24","2026-02-17T20:03:35.622Z","Mozilla/5.0 (iPhone; CPU iPhone OS 18_7 like Mac OS X) AppleWebKit/605.1.15 (KHTML, like Gecko) Mobile/15E148","408","729","480","","3246","<div class=""prompt"" style=""font-size:24px; margin-bottom:20px;"">Which word describes you more?</div>","1","pairing","22","flawless","committed","PosPos","60","97","positive","positive","37","committed","right","true"
"html-keyboard-response","46","89887","0.0-2.0-0.22","1021","17","pre","6","afternoon","2026-02-12","2026-02-24","2026-02-17T20:03:35.622Z","Mozilla/5.0 (iPhone; CPU iPhone OS 18_7 like Mac OS X) AppleWebKit/605.1.15 (KHTML, like Gecko) Mobile/15E148","408","729","480","","null","<div style=""font-size:60px;"">+</div>","null","fixation","","","","","","","","","","","",""
"html-button-response","47","93968","0.0-2.0-1.22","1021","17","pre","6","afternoon","2026-02-12","2026-02-24","2026-02-17T20:03:35.622Z","Mozilla/5.0 (iPhone; CPU iPhone OS 18_7 like Mac OS X) AppleWebKit/605.1.15 (KHTML, like Gecko) Mobile/15E148","408","729","480","","4080","<div class=""prompt"" style=""font-size:24px; margin-bottom:20px;"">Which word describes you more?</div>","1","pairing","23","fraud","helpless","NegNeg","0","13","negative","negative","13","helpless","right","true"
"html-keyboard-response","48","94771","0.0-2.0-0.23","1021","17","pre","6","afternoon","2026-02-12","2026-02-24","2026-02-17T20:03:35.622Z","Mozilla/5.0 (iPhone; CPU iPhone OS 18_7 like Mac OS X) AppleWebKit/605.1.15 (KHTML, like Gecko) Mobile/15E148","408","729","480","","null","<div style=""font-size:60px;"">+</div>","null","fixation","","","","","","","","","","","",""
"html-button-response","49","99468","0.0-2.0-1.23","1021","17","pre","6","afternoon","2026-02-12","2026-02-24","2026-02-17T20:03:35.622Z","Mozilla/5.0 (iPhone; CPU iPhone OS 18_7 like Mac OS X) AppleWebKit/605.1.15 (KHTML, like Gecko) Mobile/15E148","408","729","480","","4697","<div class=""prompt"" style=""font-size:24px; margin-bottom:20px;"">Which word describes you more?</div>","1","pairing","24","expert","achiever","PosPos","96","93","positive","positive","3","achiever","right","true"
"instructions","50","100217","0.0-3.0","1021","17","pre","6","afternoon","2026-02-12","2026-02-24","2026-02-17T20:03:35.622Z","Mozilla/5.0 (iPhone; CPU iPhone OS 18_7 like Mac OS X) AppleWebKit/605.1.15 (KHTML, like Gecko) Mobile/15E148","408","729","480","[{""page_index"":0,""viewing_time"":748}]","749","","","","","","","","","","","","","","",""
