"trial_type","trial_index","time_elapsed","internal_node_id","PUNS_ID","session_number","session_phase","session_day","session_slot","ema_start_date","ema_post_start_date","experiment_start","browser","screen_width","screen_height","timezone_offset","view_history","rt","stimulus","response","which_experiment_phase","trial_number","left_word","right_word","valence","left_base_rating","right_base_rating","left_valence","right_valence","abs_diff","participant_response","chosen_side","valid_response"
"pavlovia","0","6400","0.0-0.0","1060","47","post","6","afternoon","2026-04-15","2026-04-28","2026-05-03T16:41:06.175Z","Mozilla/5.0 (iPhone; CPU iPhone OS 18_7 like Mac OS X) AppleWebKit/605.1.15 (KHTML, like Gecko) Mobile/15E148","358","632","240","","","","","","","","","","","","","","","","",""
"instructions","1","10049","0.0-1.0","1060","47","post","6","afternoon","2026-04-15","2026-04-28","2026-05-03T16:41:06.175Z","Mozilla/5.0 (iPhone; CPU iPhone OS 18_7 like Mac OS X) AppleWebKit/605.1.15 (KHTML, like Gecko) Mobile/15E148","358","632","240","[{""page_index"":0,""viewing_time"":800},{""page_index"":1,""viewing_time"":869},{""page_index"":2,""viewing_time"":1433},{""page_index"":3,""viewing_time"":538}]","3640","","","","","","","","","","","","","","",""
"html-keyboard-response","2","10853","0.0-2.0-0.0","1060","47","post","6","afternoon","2026-04-15","2026-04-28","2026-05-03T16:41:06.175Z","Mozilla/5.0 (iPhone; CPU iPhone OS 18_7 like Mac OS X) AppleWebKit/605.1.15 (KHTML, like Gecko) Mobile/15E148","358","632","240","","null","<div style=""font-size:60px;"">+</div>","null","fixation","","","","","","","","","","","",""
"html-button-response","3","11578","0.0-2.0-1.0","1060","47","post","6","afternoon","2026-04-15","2026-04-28","2026-05-03T16:41:06.175Z","Mozilla/5.0 (iPhone; CPU iPhone OS 18_7 like Mac OS X) AppleWebKit/605.1.15 (KHTML, like Gecko) Mobile/15E148","358","632","240","","717","<div class=""prompt"" style=""font-size:24px; margin-bottom:20px;"">Which word describes you more?</div>","0","pairing","1","excited","idealistic","PosPos","73","78","positive","positive","5","excited","left","true"
"html-keyboard-response","4","12381","0.0-2.0-0.1","1060","47","post","6","afternoon","2026-04-15","2026-04-28","2026-05-03T16:41:06.175Z","Mozilla/5.0 (iPhone; CPU iPhone OS 18_7 like Mac OS X) AppleWebKit/605.1.15 (KHTML, like Gecko) Mobile/15E148","358","632","240","","null","<div style=""font-size:60px;"">+</div>","null","fixation","","","","","","","","","","","",""
"html-button-response","5","13362","0.0-2.0-1.1","1060","47","post","6","afternoon","2026-04-15","2026-04-28","2026-05-03T16:41:06.175Z","Mozilla/5.0 (iPhone; CPU iPhone OS 18_7 like Mac OS X) AppleWebKit/605.1.15 (KHTML, like Gecko) Mobile/15E148","358","632","240","","976","<div class=""prompt"" style=""font-size:24px; margin-bottom:20px;"">Which word describes you more?</div>","1","pairing","2","stingy","idealistic","PosNeg","68","78","negative","positive","10","idealistic","right","true"
"html-keyboard-response","6","14165","0.0-2.0-0.2","1060","47","post","6","afternoon","2026-04-15","2026-04-28","2026-05-03T16:41:06.175Z","Mozilla/5.0 (iPhone; CPU iPhone OS 18_7 like Mac OS X) AppleWebKit/605.1.15 (KHTML, like Gecko) Mobile/15E148","358","632","240","","null","<div style=""font-size:60px;"">+</div>","null","fixation","","","","","","","","","","","",""
"html-button-response","7","15282","0.0-2.0-1.2","1060","47","post","6","afternoon","2026-04-15","2026-04-28","2026-05-03T16:41:06.175Z","Mozilla/5.0 (iPhone; CPU iPhone OS 18_7 like Mac OS X) AppleWebKit/605.1.15 (KHTML, like Gecko) Mobile/15E148","358","632","240","","1115","<div class=""prompt"" style=""font-size:24px; margin-bottom:20px;"">Which word describes you more?</div>","1","pairing","3","immoral","successful","PosNeg","9","74","negative","positive","65","successful","right","true"
"html-keyboard-response","8","16086","0.0-2.0-0.3","1060","47","post","6","afternoon","2026-04-15","2026-04-28","2026-05-03T16:41:06.175Z","Mozilla/5.0 (iPhone; CPU iPhone OS 18_7 like Mac OS X) AppleWebKit/605.1.15 (KHTML, like Gecko) Mobile/15E148","358","632","240","","null","<div style=""font-size:60px;"">+</div>","null","fixation","","","","","","","","","","","",""
"html-button-response","9","17271","0.0-2.0-1.3","1060","47","post","6","afternoon","2026-04-15","2026-04-28","2026-05-03T16:41:06.175Z","Mozilla/5.0 (iPhone; CPU iPhone OS 18_7 like Mac OS X) AppleWebKit/605.1.15 (KHTML, like Gecko) Mobile/15E148","358","632","240","","1183","<div class=""prompt"" style=""font-size:24px; margin-bottom:20px;"">Which word describes you more?</div>","1","pairing","4","safe","helpless","PosNeg","83","6","positive","negative","77","helpless","right","true"
"html-keyboard-response","10","18074","0.0-2.0-0.4","1060","47","post","6","afternoon","2026-04-15","2026-04-28","2026-05-03T16:41:06.175Z","Mozilla/5.0 (iPhone; CPU iPhone OS 18_7 like Mac OS X) AppleWebKit/605.1.15 (KHTML, like Gecko) Mobile/15E148","358","632","240","","null","<div style=""font-size:60px;"">+</div>","null","fixation","","","","","","","","","","","",""
"html-button-response","11","18867","0.0-2.0-1.4","1060","47","post","6","afternoon","2026-04-15","2026-04-28","2026-05-03T16:41:06.175Z","Mozilla/5.0 (iPhone; CPU iPhone OS 18_7 like Mac OS X) AppleWebKit/605.1.15 (KHTML, like Gecko) Mobile/15E148","358","632","240","","791","<div class=""prompt"" style=""font-size:24px; margin-bottom:20px;"">Which word describes you more?</div>","0","pairing","5","unique","blissful","PosPos","75","16","positive","positive","59","unique","left","true"
"html-keyboard-response","12","19670","0.0-2.0-0.5","1060","47","post","6","afternoon","2026-04-15","2026-04-28","2026-05-03T16:41:06.175Z","Mozilla/5.0 (iPhone; CPU iPhone OS 18_7 like Mac OS X) AppleWebKit/605.1.15 (KHTML, like Gecko) Mobile/15E148","358","632","240","","null","<div style=""font-size:60px;"">+</div>","null","fixation","","","","","","","","","","","",""
"html-button-response","13","20961","0.0-2.0-1.5","1060","47","post","6","afternoon","2026-04-15","2026-04-28","2026-05-03T16:41:06.175Z","Mozilla/5.0 (iPhone; CPU iPhone OS 18_7 like Mac OS X) AppleWebKit/605.1.15 (KHTML, like Gecko) Mobile/15E148","358","632","240","","1289","<div class=""prompt"" style=""font-size:24px; margin-bottom:20px;"">Which word describes you more?</div>","0","pairing","6","pleased","degenerate","PosNeg","13","15","positive","negative","2","pleased","left","true"
"html-keyboard-response","14","21764","0.0-2.0-0.6","1060","47","post","6","afternoon","2026-04-15","2026-04-28","2026-05-03T16:41:06.175Z","Mozilla/5.0 (iPhone; CPU iPhone OS 18_7 like Mac OS X) AppleWebKit/605.1.15 (KHTML, like Gecko) Mobile/15E148","358","632","240","","null","<div style=""font-size:60px;"">+</div>","null","fixation","","","","","","","","","","","",""
"html-button-response","15","22548","0.0-2.0-1.6","1060","47","post","6","afternoon","2026-04-15","2026-04-28","2026-05-03T16:41:06.175Z","Mozilla/5.0 (iPhone; CPU iPhone OS 18_7 like Mac OS X) AppleWebKit/605.1.15 (KHTML, like Gecko) Mobile/15E148","358","632","240","","781","<div class=""prompt"" style=""font-size:24px; margin-bottom:20px;"">Which word describes you more?</div>","0","pairing","7","resourceful","arrogant","PosNeg","79","59","positive","negative","20","resourceful","left","true"
"html-keyboard-response","16","23351","0.0-2.0-0.7","1060","47","post","6","afternoon","2026-04-15","2026-04-28","2026-05-03T16:41:06.175Z","Mozilla/5.0 (iPhone; CPU iPhone OS 18_7 like Mac OS X) AppleWebKit/605.1.15 (KHTML, like Gecko) Mobile/15E148","358","632","240","","null","<div style=""font-size:60px;"">+</div>","null","fixation","","","","","","","","","","","",""
"html-button-response","17","24471","0.0-2.0-1.7","1060","47","post","6","afternoon","2026-04-15","2026-04-28","2026-05-03T16:41:06.175Z","Mozilla/5.0 (iPhone; CPU iPhone OS 18_7 like Mac OS X) AppleWebKit/605.1.15 (KHTML, like Gecko) Mobile/15E148","358","632","240","","1115","<div class=""prompt"" style=""font-size:24px; margin-bottom:20px;"">Which word describes you more?</div>","1","pairing","8","expert","adventurous","PosPos","8","78","positive","positive","70","adventurous","right","true"
"html-keyboard-response","18","25273","0.0-2.0-0.8","1060","47","post","6","afternoon","2026-04-15","2026-04-28","2026-05-03T16:41:06.175Z","Mozilla/5.0 (iPhone; CPU iPhone OS 18_7 like Mac OS X) AppleWebKit/605.1.15 (KHTML, like Gecko) Mobile/15E148","358","632","240","","null","<div style=""font-size:60px;"">+</div>","null","fixation","","","","","","","","","","","",""
"html-button-response","19","26700","0.0-2.0-1.8","1060","47","post","6","afternoon","2026-04-15","2026-04-28","2026-05-03T16:41:06.175Z","Mozilla/5.0 (iPhone; CPU iPhone OS 18_7 like Mac OS X) AppleWebKit/605.1.15 (KHTML, like Gecko) Mobile/15E148","358","632","240","","1424","<div class=""prompt"" style=""font-size:24px; margin-bottom:20px;"">Which word describes you more?</div>","1","pairing","9","selfish","fun","PosNeg","15","85","negative","positive","70","fun","right","true"
"html-keyboard-response","20","27503","0.0-2.0-0.9","1060","47","post","6","afternoon","2026-04-15","2026-04-28","2026-05-03T16:41:06.175Z","Mozilla/5.0 (iPhone; CPU iPhone OS 18_7 like Mac OS X) AppleWebKit/605.1.15 (KHTML, like Gecko) Mobile/15E148","358","632","240","","null","<div style=""font-size:60px;"">+</div>","null","fixation","","","","","","","","","","","",""
"html-button-response","21","28608","0.0-2.0-1.9","1060","47","post","6","afternoon","2026-04-15","2026-04-28","2026-05-03T16:41:06.175Z","Mozilla/5.0 (iPhone; CPU iPhone OS 18_7 like Mac OS X) AppleWebKit/605.1.15 (KHTML, like Gecko) Mobile/15E148","358","632","240","","1095","<div class=""prompt"" style=""font-size:24px; margin-bottom:20px;"">Which word describes you more?</div>","0","pairing","10","cooperative","parasite","PosNeg","81","6","positive","negative","75","cooperative","left","true"
"html-keyboard-response","22","29412","0.0-2.0-0.10","1060","47","post","6","afternoon","2026-04-15","2026-04-28","2026-05-03T16:41:06.175Z","Mozilla/5.0 (iPhone; CPU iPhone OS 18_7 like Mac OS X) AppleWebKit/605.1.15 (KHTML, like Gecko) Mobile/15E148","358","632","240","","null","<div style=""font-size:60px;"">+</div>","null","fixation","","","","","","","","","","","",""
"html-button-response","23","30257","0.0-2.0-1.10","1060","47","post","6","afternoon","2026-04-15","2026-04-28","2026-05-03T16:41:06.175Z","Mozilla/5.0 (iPhone; CPU iPhone OS 18_7 like Mac OS X) AppleWebKit/605.1.15 (KHTML, like Gecko) Mobile/15E148","358","632","240","","842","<div class=""prompt"" style=""font-size:24px; margin-bottom:20px;"">Which word describes you more?</div>","1","pairing","11","jerk","flawless","PosNeg","17","8","negative","positive","9","flawless","right","true"
"html-keyboard-response","24","31060","0.0-2.0-0.11","1060","47","post","6","afternoon","2026-04-15","2026-04-28","2026-05-03T16:41:06.175Z","Mozilla/5.0 (iPhone; CPU iPhone OS 18_7 like Mac OS X) AppleWebKit/605.1.15 (KHTML, like Gecko) Mobile/15E148","358","632","240","","null","<div style=""font-size:60px;"">+</div>","null","fixation","","","","","","","","","","","",""
"html-button-response","25","32268","0.0-2.0-1.11","1060","47","post","6","afternoon","2026-04-15","2026-04-28","2026-05-03T16:41:06.175Z","Mozilla/5.0 (iPhone; CPU iPhone OS 18_7 like Mac OS X) AppleWebKit/605.1.15 (KHTML, like Gecko) Mobile/15E148","358","632","240","","1206","<div class=""prompt"" style=""font-size:24px; margin-bottom:20px;"">Which word describes you more?</div>","1","pairing","12","disgusting","hesitant","NegNeg","4","54","negative","negative","50","hesitant","right","true"
"html-keyboard-response","26","33071","0.0-2.0-0.12","1060","47","post","6","afternoon","2026-04-15","2026-04-28","2026-05-03T16:41:06.175Z","Mozilla/5.0 (iPhone; CPU iPhone OS 18_7 like Mac OS X) AppleWebKit/605.1.15 (KHTML, like Gecko) Mobile/15E148","358","632","240","","null","<div style=""font-size:60px;"">+</div>","null","fixation","","","","","","","","","","","",""
"html-button-response","27","34276","0.0-2.0-1.12","1060","47","post","6","afternoon","2026-04-15","2026-04-28","2026-05-03T16:41:06.175Z","Mozilla/5.0 (iPhone; CPU iPhone OS 18_7 like Mac OS X) AppleWebKit/605.1.15 (KHTML, like Gecko) Mobile/15E148","358","632","240","","1203","<div class=""prompt"" style=""font-size:24px; margin-bottom:20px;"">Which word describes you more?</div>","0","pairing","13","merciful","flawless","PosPos","82","8","positive","positive","74","merciful","left","true"
"html-keyboard-response","28","35079","0.0-2.0-0.13","1060","47","post","6","afternoon","2026-04-15","2026-04-28","2026-05-03T16:41:06.175Z","Mozilla/5.0 (iPhone; CPU iPhone OS 18_7 like Mac OS X) AppleWebKit/605.1.15 (KHTML, like Gecko) Mobile/15E148","358","632","240","","null","<div style=""font-size:60px;"">+</div>","null","fixation","","","","","","","","","","","",""
"html-button-response","29","37157","0.0-2.0-1.13","1060","47","post","6","afternoon","2026-04-15","2026-04-28","2026-05-03T16:41:06.175Z","Mozilla/5.0 (iPhone; CPU iPhone OS 18_7 like Mac OS X) AppleWebKit/605.1.15 (KHTML, like Gecko) Mobile/15E148","358","632","240","","2075","<div class=""prompt"" style=""font-size:24px; margin-bottom:20px;"">Which word describes you more?</div>","1","pairing","14","distressed","sloppy","NegNeg","17","28","negative","negative","11","sloppy","right","true"
"html-keyboard-response","30","37960","0.0-2.0-0.14","1060","47","post","6","afternoon","2026-04-15","2026-04-28","2026-05-03T16:41:06.175Z","Mozilla/5.0 (iPhone; CPU iPhone OS 18_7 like Mac OS X) AppleWebKit/605.1.15 (KHTML, like Gecko) Mobile/15E148","358","632","240","","null","<div style=""font-size:60px;"">+</div>","null","fixation","","","","","","","","","","","",""
"html-button-response","31","38760","0.0-2.0-1.14","1060","47","post","6","afternoon","2026-04-15","2026-04-28","2026-05-03T16:41:06.175Z","Mozilla/5.0 (iPhone; CPU iPhone OS 18_7 like Mac OS X) AppleWebKit/605.1.15 (KHTML, like Gecko) Mobile/15E148","358","632","240","","798","<div class=""prompt"" style=""font-size:24px; margin-bottom:20px;"">Which word describes you more?</div>","0","pairing","15","pleased","thoughtful","PosPos","13","75","positive","positive","62","pleased","left","true"
"html-keyboard-response","32","39563","0.0-2.0-0.15","1060","47","post","6","afternoon","2026-04-15","2026-04-28","2026-05-03T16:41:06.175Z","Mozilla/5.0 (iPhone; CPU iPhone OS 18_7 like Mac OS X) AppleWebKit/605.1.15 (KHTML, like Gecko) Mobile/15E148","358","632","240","","null","<div style=""font-size:60px;"">+</div>","null","fixation","","","","","","","","","","","",""
"html-button-response","33","40918","0.0-2.0-1.15","1060","47","post","6","afternoon","2026-04-15","2026-04-28","2026-05-03T16:41:06.175Z","Mozilla/5.0 (iPhone; CPU iPhone OS 18_7 like Mac OS X) AppleWebKit/605.1.15 (KHTML, like Gecko) Mobile/15E148","358","632","240","","1352","<div class=""prompt"" style=""font-size:24px; margin-bottom:20px;"">Which word describes you more?</div>","1","pairing","16","inadequate","fool","NegNeg","6","73","negative","negative","67","fool","right","true"
"html-keyboard-response","34","41722","0.0-2.0-0.16","1060","47","post","6","afternoon","2026-04-15","2026-04-28","2026-05-03T16:41:06.175Z","Mozilla/5.0 (iPhone; CPU iPhone OS 18_7 like Mac OS X) AppleWebKit/605.1.15 (KHTML, like Gecko) Mobile/15E148","358","632","240","","null","<div style=""font-size:60px;"">+</div>","null","fixation","","","","","","","","","","","",""
"html-button-response","35","42793","0.0-2.0-1.16","1060","47","post","6","afternoon","2026-04-15","2026-04-28","2026-05-03T16:41:06.175Z","Mozilla/5.0 (iPhone; CPU iPhone OS 18_7 like Mac OS X) AppleWebKit/605.1.15 (KHTML, like Gecko) Mobile/15E148","358","632","240","","1067","<div class=""prompt"" style=""font-size:24px; margin-bottom:20px;"">Which word describes you more?</div>","0","pairing","17","fool","expert","PosNeg","73","8","negative","positive","65","fool","left","true"
"html-keyboard-response","36","43596","0.0-2.0-0.17","1060","47","post","6","afternoon","2026-04-15","2026-04-28","2026-05-03T16:41:06.175Z","Mozilla/5.0 (iPhone; CPU iPhone OS 18_7 like Mac OS X) AppleWebKit/605.1.15 (KHTML, like Gecko) Mobile/15E148","358","632","240","","null","<div style=""font-size:60px;"">+</div>","null","fixation","","","","","","","","","","","",""
"html-button-response","37","44864","0.0-2.0-1.17","1060","47","post","6","afternoon","2026-04-15","2026-04-28","2026-05-03T16:41:06.175Z","Mozilla/5.0 (iPhone; CPU iPhone OS 18_7 like Mac OS X) AppleWebKit/605.1.15 (KHTML, like Gecko) Mobile/15E148","358","632","240","","1265","<div class=""prompt"" style=""font-size:24px; margin-bottom:20px;"">Which word describes you more?</div>","1","pairing","18","expert","hesitant","PosNeg","8","54","positive","negative","46","hesitant","right","true"
"html-keyboard-response","38","45666","0.0-2.0-0.18","1060","47","post","6","afternoon","2026-04-15","2026-04-28","2026-05-03T16:41:06.175Z","Mozilla/5.0 (iPhone; CPU iPhone OS 18_7 like Mac OS X) AppleWebKit/605.1.15 (KHTML, like Gecko) Mobile/15E148","358","632","240","","null","<div style=""font-size:60px;"">+</div>","null","fixation","","","","","","","","","","","",""
"html-button-response","39","46775","0.0-2.0-1.18","1060","47","post","6","afternoon","2026-04-15","2026-04-28","2026-05-03T16:41:06.175Z","Mozilla/5.0 (iPhone; CPU iPhone OS 18_7 like Mac OS X) AppleWebKit/605.1.15 (KHTML, like Gecko) Mobile/15E148","358","632","240","","1107","<div class=""prompt"" style=""font-size:24px; margin-bottom:20px;"">Which word describes you more?</div>","0","pairing","19","adventurous","awkward","PosNeg","78","11","positive","negative","67","adventurous","left","true"
"html-keyboard-response","40","47578","0.0-2.0-0.19","1060","47","post","6","afternoon","2026-04-15","2026-04-28","2026-05-03T16:41:06.175Z","Mozilla/5.0 (iPhone; CPU iPhone OS 18_7 like Mac OS X) AppleWebKit/605.1.15 (KHTML, like Gecko) Mobile/15E148","358","632","240","","null","<div style=""font-size:60px;"">+</div>","null","fixation","","","","","","","","","","","",""
"html-button-response","41","48535","0.0-2.0-1.19","1060","47","post","6","afternoon","2026-04-15","2026-04-28","2026-05-03T16:41:06.175Z","Mozilla/5.0 (iPhone; CPU iPhone OS 18_7 like Mac OS X) AppleWebKit/605.1.15 (KHTML, like Gecko) Mobile/15E148","358","632","240","","954","<div class=""prompt"" style=""font-size:24px; margin-bottom:20px;"">Which word describes you more?</div>","0","pairing","20","wise","hater","PosNeg","67","8","positive","negative","59","wise","left","true"
"html-keyboard-response","42","49337","0.0-2.0-0.20","1060","47","post","6","afternoon","2026-04-15","2026-04-28","2026-05-03T16:41:06.175Z","Mozilla/5.0 (iPhone; CPU iPhone OS 18_7 like Mac OS X) AppleWebKit/605.1.15 (KHTML, like Gecko) Mobile/15E148","358","632","240","","null","<div style=""font-size:60px;"">+</div>","null","fixation","","","","","","","","","","","",""
"html-button-response","43","50204","0.0-2.0-1.20","1060","47","post","6","afternoon","2026-04-15","2026-04-28","2026-05-03T16:41:06.175Z","Mozilla/5.0 (iPhone; CPU iPhone OS 18_7 like Mac OS X) AppleWebKit/605.1.15 (KHTML, like Gecko) Mobile/15E148","358","632","240","","865","<div class=""prompt"" style=""font-size:24px; margin-bottom:20px;"">Which word describes you more?</div>","0","pairing","21","stingy","hater","NegNeg","68","8","negative","negative","60","stingy","left","true"
"html-keyboard-response","44","51006","0.0-2.0-0.21","1060","47","post","6","afternoon","2026-04-15","2026-04-28","2026-05-03T16:41:06.175Z","Mozilla/5.0 (iPhone; CPU iPhone OS 18_7 like Mac OS X) AppleWebKit/605.1.15 (KHTML, like Gecko) Mobile/15E148","358","632","240","","null","<div style=""font-size:60px;"">+</div>","null","fixation","","","","","","","","","","","",""
"html-button-response","45","51898","0.0-2.0-1.21","1060","47","post","6","afternoon","2026-04-15","2026-04-28","2026-05-03T16:41:06.175Z","Mozilla/5.0 (iPhone; CPU iPhone OS 18_7 like Mac OS X) AppleWebKit/605.1.15 (KHTML, like Gecko) Mobile/15E148","358","632","240","","888","<div class=""prompt"" style=""font-size:24px; margin-bottom:20px;"">Which word describes you more?</div>","0","pairing","22","capable","wise","PosPos","79","67","positive","positive","12","capable","left","true"
"html-keyboard-response","46","52700","0.0-2.0-0.22","1060","47","post","6","afternoon","2026-04-15","2026-04-28","2026-05-03T16:41:06.175Z","Mozilla/5.0 (iPhone; CPU iPhone OS 18_7 like Mac OS X) AppleWebKit/605.1.15 (KHTML, like Gecko) Mobile/15E148","358","632","240","","null","<div style=""font-size:60px;"">+</div>","null","fixation","","","","","","","","","","","",""
"html-button-response","47","54056","0.0-2.0-1.22","1060","47","post","6","afternoon","2026-04-15","2026-04-28","2026-05-03T16:41:06.175Z","Mozilla/5.0 (iPhone; CPU iPhone OS 18_7 like Mac OS X) AppleWebKit/605.1.15 (KHTML, like Gecko) Mobile/15E148","358","632","240","","1351","<div class=""prompt"" style=""font-size:24px; margin-bottom:20px;"">Which word describes you more?</div>","0","pairing","23","uninvited","fraud","NegNeg","8","5","negative","negative","3","uninvited","left","true"
"html-keyboard-response","48","54858","0.0-2.0-0.23","1060","47","post","6","afternoon","2026-04-15","2026-04-28","2026-05-03T16:41:06.175Z","Mozilla/5.0 (iPhone; CPU iPhone OS 18_7 like Mac OS X) AppleWebKit/605.1.15 (KHTML, like Gecko) Mobile/15E148","358","632","240","","null","<div style=""font-size:60px;"">+</div>","null","fixation","","","","","","","","","","","",""
"html-button-response","49","55924","0.0-2.0-1.23","1060","47","post","6","afternoon","2026-04-15","2026-04-28","2026-05-03T16:41:06.175Z","Mozilla/5.0 (iPhone; CPU iPhone OS 18_7 like Mac OS X) AppleWebKit/605.1.15 (KHTML, like Gecko) Mobile/15E148","358","632","240","","1064","<div class=""prompt"" style=""font-size:24px; margin-bottom:20px;"">Which word describes you more?</div>","1","pairing","24","fool","insecure","NegNeg","73","6","negative","negative","67","insecure","right","true"
"instructions","50","56595","0.0-3.0","1060","47","post","6","afternoon","2026-04-15","2026-04-28","2026-05-03T16:41:06.175Z","Mozilla/5.0 (iPhone; CPU iPhone OS 18_7 like Mac OS X) AppleWebKit/605.1.15 (KHTML, like Gecko) Mobile/15E148","358","632","240","[{""page_index"":0,""viewing_time"":669}]","669","","","","","","","","","","","","","","",""
