"trial_type","trial_index","time_elapsed","internal_node_id","PUNS_ID","session_number","session_phase","session_day","session_slot","ema_start_date","ema_post_start_date","experiment_start","browser","screen_width","screen_height","timezone_offset","view_history","rt","stimulus","response","which_experiment_phase","trial_number","left_word","right_word","valence","left_base_rating","right_base_rating","left_valence","right_valence","abs_diff","participant_response","chosen_side","valid_response"
"pavlovia","0","1902","0.0-0.0","1027","17","pre","6","afternoon","2026-03-22","2026-04-03","2026-03-27T20:25:09.358Z","Mozilla/5.0 (iPhone; CPU iPhone OS 18_6_2 like Mac OS X) AppleWebKit/605.1.15 (KHTML, like Gecko) Mobile/15E148","398","708","420","","","","","","","","","","","","","","","","",""
"instructions","1","72840","0.0-1.0","1027","17","pre","6","afternoon","2026-03-22","2026-04-03","2026-03-27T20:25:09.358Z","Mozilla/5.0 (iPhone; CPU iPhone OS 18_6_2 like Mac OS X) AppleWebKit/605.1.15 (KHTML, like Gecko) Mobile/15E148","398","708","420","[{""page_index"":0,""viewing_time"":30617},{""page_index"":1,""viewing_time"":6413},{""page_index"":2,""viewing_time"":29754},{""page_index"":3,""viewing_time"":4151}]","70936","","","","","","","","","","","","","","",""
"html-keyboard-response","2","73646","0.0-2.0-0.0","1027","17","pre","6","afternoon","2026-03-22","2026-04-03","2026-03-27T20:25:09.358Z","Mozilla/5.0 (iPhone; CPU iPhone OS 18_6_2 like Mac OS X) AppleWebKit/605.1.15 (KHTML, like Gecko) Mobile/15E148","398","708","420","","null","<div style=""font-size:60px;"">+</div>","null","fixation","","","","","","","","","","","",""
"html-button-response","3","75473","0.0-2.0-1.0","1027","17","pre","6","afternoon","2026-03-22","2026-04-03","2026-03-27T20:25:09.358Z","Mozilla/5.0 (iPhone; CPU iPhone OS 18_6_2 like Mac OS X) AppleWebKit/605.1.15 (KHTML, like Gecko) Mobile/15E148","398","708","420","","1823","<div class=""prompt"" style=""font-size:24px; margin-bottom:20px;"">Which word describes you more?</div>","1","pairing","1","blissful","playful","PosPos","60","100","positive","positive","40","playful","right","true"
"html-keyboard-response","4","76276","0.0-2.0-0.1","1027","17","pre","6","afternoon","2026-03-22","2026-04-03","2026-03-27T20:25:09.358Z","Mozilla/5.0 (iPhone; CPU iPhone OS 18_6_2 like Mac OS X) AppleWebKit/605.1.15 (KHTML, like Gecko) Mobile/15E148","398","708","420","","null","<div style=""font-size:60px;"">+</div>","null","fixation","","","","","","","","","","","",""
"html-button-response","5","78491","0.0-2.0-1.1","1027","17","pre","6","afternoon","2026-03-22","2026-04-03","2026-03-27T20:25:09.358Z","Mozilla/5.0 (iPhone; CPU iPhone OS 18_6_2 like Mac OS X) AppleWebKit/605.1.15 (KHTML, like Gecko) Mobile/15E148","398","708","420","","2213","<div class=""prompt"" style=""font-size:24px; margin-bottom:20px;"">Which word describes you more?</div>","0","pairing","2","outcast","spectacular","PosNeg","60","10","negative","positive","50","outcast","left","true"
"html-keyboard-response","6","79293","0.0-2.0-0.2","1027","17","pre","6","afternoon","2026-03-22","2026-04-03","2026-03-27T20:25:09.358Z","Mozilla/5.0 (iPhone; CPU iPhone OS 18_6_2 like Mac OS X) AppleWebKit/605.1.15 (KHTML, like Gecko) Mobile/15E148","398","708","420","","null","<div style=""font-size:60px;"">+</div>","null","fixation","","","","","","","","","","","",""
"html-button-response","7","80841","0.0-2.0-1.2","1027","17","pre","6","afternoon","2026-03-22","2026-04-03","2026-03-27T20:25:09.358Z","Mozilla/5.0 (iPhone; CPU iPhone OS 18_6_2 like Mac OS X) AppleWebKit/605.1.15 (KHTML, like Gecko) Mobile/15E148","398","708","420","","1545","<div class=""prompt"" style=""font-size:24px; margin-bottom:20px;"">Which word describes you more?</div>","1","pairing","3","alone","expert","PosNeg","1","78","negative","positive","77","expert","right","true"
"html-keyboard-response","8","81643","0.0-2.0-0.3","1027","17","pre","6","afternoon","2026-03-22","2026-04-03","2026-03-27T20:25:09.358Z","Mozilla/5.0 (iPhone; CPU iPhone OS 18_6_2 like Mac OS X) AppleWebKit/605.1.15 (KHTML, like Gecko) Mobile/15E148","398","708","420","","null","<div style=""font-size:60px;"">+</div>","null","fixation","","","","","","","","","","","",""
"html-button-response","9","83192","0.0-2.0-1.3","1027","17","pre","6","afternoon","2026-03-22","2026-04-03","2026-03-27T20:25:09.358Z","Mozilla/5.0 (iPhone; CPU iPhone OS 18_6_2 like Mac OS X) AppleWebKit/605.1.15 (KHTML, like Gecko) Mobile/15E148","398","708","420","","1546","<div class=""prompt"" style=""font-size:24px; margin-bottom:20px;"">Which word describes you more?</div>","0","pairing","4","brave","rude","PosNeg","68","0","positive","negative","68","brave","left","true"
"html-keyboard-response","10","83994","0.0-2.0-0.4","1027","17","pre","6","afternoon","2026-03-22","2026-04-03","2026-03-27T20:25:09.358Z","Mozilla/5.0 (iPhone; CPU iPhone OS 18_6_2 like Mac OS X) AppleWebKit/605.1.15 (KHTML, like Gecko) Mobile/15E148","398","708","420","","null","<div style=""font-size:60px;"">+</div>","null","fixation","","","","","","","","","","","",""
"html-button-response","11","85454","0.0-2.0-1.4","1027","17","pre","6","afternoon","2026-03-22","2026-04-03","2026-03-27T20:25:09.358Z","Mozilla/5.0 (iPhone; CPU iPhone OS 18_6_2 like Mac OS X) AppleWebKit/605.1.15 (KHTML, like Gecko) Mobile/15E148","398","708","420","","1458","<div class=""prompt"" style=""font-size:24px; margin-bottom:20px;"">Which word describes you more?</div>","1","pairing","5","loser","blissful","PosNeg","50","60","negative","positive","10","blissful","right","true"
"html-keyboard-response","12","86257","0.0-2.0-0.5","1027","17","pre","6","afternoon","2026-03-22","2026-04-03","2026-03-27T20:25:09.358Z","Mozilla/5.0 (iPhone; CPU iPhone OS 18_6_2 like Mac OS X) AppleWebKit/605.1.15 (KHTML, like Gecko) Mobile/15E148","398","708","420","","null","<div style=""font-size:60px;"">+</div>","null","fixation","","","","","","","","","","","",""
"html-button-response","13","87855","0.0-2.0-1.5","1027","17","pre","6","afternoon","2026-03-22","2026-04-03","2026-03-27T20:25:09.358Z","Mozilla/5.0 (iPhone; CPU iPhone OS 18_6_2 like Mac OS X) AppleWebKit/605.1.15 (KHTML, like Gecko) Mobile/15E148","398","708","420","","1596","<div class=""prompt"" style=""font-size:24px; margin-bottom:20px;"">Which word describes you more?</div>","1","pairing","6","smiley","playful","PosPos","99","100","positive","positive","1","playful","right","true"
"html-keyboard-response","14","88658","0.0-2.0-0.6","1027","17","pre","6","afternoon","2026-03-22","2026-04-03","2026-03-27T20:25:09.358Z","Mozilla/5.0 (iPhone; CPU iPhone OS 18_6_2 like Mac OS X) AppleWebKit/605.1.15 (KHTML, like Gecko) Mobile/15E148","398","708","420","","null","<div style=""font-size:60px;"">+</div>","null","fixation","","","","","","","","","","","",""
"html-button-response","15","90176","0.0-2.0-1.6","1027","17","pre","6","afternoon","2026-03-22","2026-04-03","2026-03-27T20:25:09.358Z","Mozilla/5.0 (iPhone; CPU iPhone OS 18_6_2 like Mac OS X) AppleWebKit/605.1.15 (KHTML, like Gecko) Mobile/15E148","398","708","420","","1516","<div class=""prompt"" style=""font-size:24px; margin-bottom:20px;"">Which word describes you more?</div>","0","pairing","7","esteemed","outcast","PosNeg","82","60","positive","negative","22","esteemed","left","true"
"html-keyboard-response","16","90978","0.0-2.0-0.7","1027","17","pre","6","afternoon","2026-03-22","2026-04-03","2026-03-27T20:25:09.358Z","Mozilla/5.0 (iPhone; CPU iPhone OS 18_6_2 like Mac OS X) AppleWebKit/605.1.15 (KHTML, like Gecko) Mobile/15E148","398","708","420","","null","<div style=""font-size:60px;"">+</div>","null","fixation","","","","","","","","","","","",""
"html-button-response","17","92289","0.0-2.0-1.7","1027","17","pre","6","afternoon","2026-03-22","2026-04-03","2026-03-27T20:25:09.358Z","Mozilla/5.0 (iPhone; CPU iPhone OS 18_6_2 like Mac OS X) AppleWebKit/605.1.15 (KHTML, like Gecko) Mobile/15E148","398","708","420","","1309","<div class=""prompt"" style=""font-size:24px; margin-bottom:20px;"">Which word describes you more?</div>","0","pairing","8","honest","sophisticated","PosPos","98","54","positive","positive","44","honest","left","true"
"html-keyboard-response","18","93092","0.0-2.0-0.8","1027","17","pre","6","afternoon","2026-03-22","2026-04-03","2026-03-27T20:25:09.358Z","Mozilla/5.0 (iPhone; CPU iPhone OS 18_6_2 like Mac OS X) AppleWebKit/605.1.15 (KHTML, like Gecko) Mobile/15E148","398","708","420","","null","<div style=""font-size:60px;"">+</div>","null","fixation","","","","","","","","","","","",""
"html-button-response","19","94670","0.0-2.0-1.8","1027","17","pre","6","afternoon","2026-03-22","2026-04-03","2026-03-27T20:25:09.358Z","Mozilla/5.0 (iPhone; CPU iPhone OS 18_6_2 like Mac OS X) AppleWebKit/605.1.15 (KHTML, like Gecko) Mobile/15E148","398","708","420","","1576","<div class=""prompt"" style=""font-size:24px; margin-bottom:20px;"">Which word describes you more?</div>","0","pairing","9","capable","carefree","PosPos","93","26","positive","positive","67","capable","left","true"
"html-keyboard-response","20","95472","0.0-2.0-0.9","1027","17","pre","6","afternoon","2026-03-22","2026-04-03","2026-03-27T20:25:09.358Z","Mozilla/5.0 (iPhone; CPU iPhone OS 18_6_2 like Mac OS X) AppleWebKit/605.1.15 (KHTML, like Gecko) Mobile/15E148","398","708","420","","null","<div style=""font-size:60px;"">+</div>","null","fixation","","","","","","","","","","","",""
"html-button-response","21","97641","0.0-2.0-1.9","1027","17","pre","6","afternoon","2026-03-22","2026-04-03","2026-03-27T20:25:09.358Z","Mozilla/5.0 (iPhone; CPU iPhone OS 18_6_2 like Mac OS X) AppleWebKit/605.1.15 (KHTML, like Gecko) Mobile/15E148","398","708","420","","2167","<div class=""prompt"" style=""font-size:24px; margin-bottom:20px;"">Which word describes you more?</div>","1","pairing","10","liar","vengeful","NegNeg","0","3","negative","negative","3","vengeful","right","true"
"html-keyboard-response","22","98443","0.0-2.0-0.10","1027","17","pre","6","afternoon","2026-03-22","2026-04-03","2026-03-27T20:25:09.358Z","Mozilla/5.0 (iPhone; CPU iPhone OS 18_6_2 like Mac OS X) AppleWebKit/605.1.15 (KHTML, like Gecko) Mobile/15E148","398","708","420","","null","<div style=""font-size:60px;"">+</div>","null","fixation","","","","","","","","","","","",""
"html-button-response","23","100129","0.0-2.0-1.10","1027","17","pre","6","afternoon","2026-03-22","2026-04-03","2026-03-27T20:25:09.358Z","Mozilla/5.0 (iPhone; CPU iPhone OS 18_6_2 like Mac OS X) AppleWebKit/605.1.15 (KHTML, like Gecko) Mobile/15E148","398","708","420","","1683","<div class=""prompt"" style=""font-size:24px; margin-bottom:20px;"">Which word describes you more?</div>","0","pairing","11","alone","menace","NegNeg","1","0","negative","negative","1","alone","left","true"
"html-keyboard-response","24","100931","0.0-2.0-0.11","1027","17","pre","6","afternoon","2026-03-22","2026-04-03","2026-03-27T20:25:09.358Z","Mozilla/5.0 (iPhone; CPU iPhone OS 18_6_2 like Mac OS X) AppleWebKit/605.1.15 (KHTML, like Gecko) Mobile/15E148","398","708","420","","null","<div style=""font-size:60px;"">+</div>","null","fixation","","","","","","","","","","","",""
"html-button-response","25","102462","0.0-2.0-1.11","1027","17","pre","6","afternoon","2026-03-22","2026-04-03","2026-03-27T20:25:09.358Z","Mozilla/5.0 (iPhone; CPU iPhone OS 18_6_2 like Mac OS X) AppleWebKit/605.1.15 (KHTML, like Gecko) Mobile/15E148","398","708","420","","1529","<div class=""prompt"" style=""font-size:24px; margin-bottom:20px;"">Which word describes you more?</div>","1","pairing","12","alone","hopeful","PosNeg","1","78","negative","positive","77","hopeful","right","true"
"html-keyboard-response","26","103265","0.0-2.0-0.12","1027","17","pre","6","afternoon","2026-03-22","2026-04-03","2026-03-27T20:25:09.358Z","Mozilla/5.0 (iPhone; CPU iPhone OS 18_6_2 like Mac OS X) AppleWebKit/605.1.15 (KHTML, like Gecko) Mobile/15E148","398","708","420","","null","<div style=""font-size:60px;"">+</div>","null","fixation","","","","","","","","","","","",""
"html-button-response","27","104828","0.0-2.0-1.12","1027","17","pre","6","afternoon","2026-03-22","2026-04-03","2026-03-27T20:25:09.358Z","Mozilla/5.0 (iPhone; CPU iPhone OS 18_6_2 like Mac OS X) AppleWebKit/605.1.15 (KHTML, like Gecko) Mobile/15E148","398","708","420","","1560","<div class=""prompt"" style=""font-size:24px; margin-bottom:20px;"">Which word describes you more?</div>","0","pairing","13","flawless","gloomy","PosNeg","0","10","positive","negative","10","flawless","left","true"
"html-keyboard-response","28","105630","0.0-2.0-0.13","1027","17","pre","6","afternoon","2026-03-22","2026-04-03","2026-03-27T20:25:09.358Z","Mozilla/5.0 (iPhone; CPU iPhone OS 18_6_2 like Mac OS X) AppleWebKit/605.1.15 (KHTML, like Gecko) Mobile/15E148","398","708","420","","null","<div style=""font-size:60px;"">+</div>","null","fixation","","","","","","","","","","","",""
"html-button-response","29","107528","0.0-2.0-1.13","1027","17","pre","6","afternoon","2026-03-22","2026-04-03","2026-03-27T20:25:09.358Z","Mozilla/5.0 (iPhone; CPU iPhone OS 18_6_2 like Mac OS X) AppleWebKit/605.1.15 (KHTML, like Gecko) Mobile/15E148","398","708","420","","1896","<div class=""prompt"" style=""font-size:24px; margin-bottom:20px;"">Which word describes you more?</div>","1","pairing","14","flawless","hesitant","PosNeg","0","51","positive","negative","51","hesitant","right","true"
"html-keyboard-response","30","108331","0.0-2.0-0.14","1027","17","pre","6","afternoon","2026-03-22","2026-04-03","2026-03-27T20:25:09.358Z","Mozilla/5.0 (iPhone; CPU iPhone OS 18_6_2 like Mac OS X) AppleWebKit/605.1.15 (KHTML, like Gecko) Mobile/15E148","398","708","420","","null","<div style=""font-size:60px;"">+</div>","null","fixation","","","","","","","","","","","",""
"html-button-response","31","109947","0.0-2.0-1.14","1027","17","pre","6","afternoon","2026-03-22","2026-04-03","2026-03-27T20:25:09.358Z","Mozilla/5.0 (iPhone; CPU iPhone OS 18_6_2 like Mac OS X) AppleWebKit/605.1.15 (KHTML, like Gecko) Mobile/15E148","398","708","420","","1615","<div class=""prompt"" style=""font-size:24px; margin-bottom:20px;"">Which word describes you more?</div>","0","pairing","15","smart","peaceful","PosPos","91","69","positive","positive","22","smart","left","true"
"html-keyboard-response","32","110750","0.0-2.0-0.15","1027","17","pre","6","afternoon","2026-03-22","2026-04-03","2026-03-27T20:25:09.358Z","Mozilla/5.0 (iPhone; CPU iPhone OS 18_6_2 like Mac OS X) AppleWebKit/605.1.15 (KHTML, like Gecko) Mobile/15E148","398","708","420","","null","<div style=""font-size:60px;"">+</div>","null","fixation","","","","","","","","","","","",""
"html-button-response","33","112665","0.0-2.0-1.15","1027","17","pre","6","afternoon","2026-03-22","2026-04-03","2026-03-27T20:25:09.358Z","Mozilla/5.0 (iPhone; CPU iPhone OS 18_6_2 like Mac OS X) AppleWebKit/605.1.15 (KHTML, like Gecko) Mobile/15E148","398","708","420","","1913","<div class=""prompt"" style=""font-size:24px; margin-bottom:20px;"">Which word describes you more?</div>","1","pairing","16","flawless","expert","PosPos","0","78","positive","positive","78","expert","right","true"
"html-keyboard-response","34","113467","0.0-2.0-0.16","1027","17","pre","6","afternoon","2026-03-22","2026-04-03","2026-03-27T20:25:09.358Z","Mozilla/5.0 (iPhone; CPU iPhone OS 18_6_2 like Mac OS X) AppleWebKit/605.1.15 (KHTML, like Gecko) Mobile/15E148","398","708","420","","null","<div style=""font-size:60px;"">+</div>","null","fixation","","","","","","","","","","","",""
"html-button-response","35","115097","0.0-2.0-1.16","1027","17","pre","6","afternoon","2026-03-22","2026-04-03","2026-03-27T20:25:09.358Z","Mozilla/5.0 (iPhone; CPU iPhone OS 18_6_2 like Mac OS X) AppleWebKit/605.1.15 (KHTML, like Gecko) Mobile/15E148","398","708","420","","1628","<div class=""prompt"" style=""font-size:24px; margin-bottom:20px;"">Which word describes you more?</div>","0","pairing","17","unique","violent","PosNeg","91","0","positive","negative","91","unique","left","true"
"html-keyboard-response","36","115900","0.0-2.0-0.17","1027","17","pre","6","afternoon","2026-03-22","2026-04-03","2026-03-27T20:25:09.358Z","Mozilla/5.0 (iPhone; CPU iPhone OS 18_6_2 like Mac OS X) AppleWebKit/605.1.15 (KHTML, like Gecko) Mobile/15E148","398","708","420","","null","<div style=""font-size:60px;"">+</div>","null","fixation","","","","","","","","","","","",""
"html-button-response","37","117948","0.0-2.0-1.17","1027","17","pre","6","afternoon","2026-03-22","2026-04-03","2026-03-27T20:25:09.358Z","Mozilla/5.0 (iPhone; CPU iPhone OS 18_6_2 like Mac OS X) AppleWebKit/605.1.15 (KHTML, like Gecko) Mobile/15E148","398","708","420","","2046","<div class=""prompt"" style=""font-size:24px; margin-bottom:20px;"">Which word describes you more?</div>","0","pairing","18","distressed","untrustworthy","NegNeg","48","0","negative","negative","48","distressed","left","true"
"html-keyboard-response","38","118750","0.0-2.0-0.18","1027","17","pre","6","afternoon","2026-03-22","2026-04-03","2026-03-27T20:25:09.358Z","Mozilla/5.0 (iPhone; CPU iPhone OS 18_6_2 like Mac OS X) AppleWebKit/605.1.15 (KHTML, like Gecko) Mobile/15E148","398","708","420","","null","<div style=""font-size:60px;"">+</div>","null","fixation","","","","","","","","","","","",""
"html-button-response","39","120782","0.0-2.0-1.18","1027","17","pre","6","afternoon","2026-03-22","2026-04-03","2026-03-27T20:25:09.358Z","Mozilla/5.0 (iPhone; CPU iPhone OS 18_6_2 like Mac OS X) AppleWebKit/605.1.15 (KHTML, like Gecko) Mobile/15E148","398","708","420","","2030","<div class=""prompt"" style=""font-size:24px; margin-bottom:20px;"">Which word describes you more?</div>","1","pairing","19","loser","satisfied","PosNeg","50","41","negative","positive","9","satisfied","right","true"
"html-keyboard-response","40","121584","0.0-2.0-0.19","1027","17","pre","6","afternoon","2026-03-22","2026-04-03","2026-03-27T20:25:09.358Z","Mozilla/5.0 (iPhone; CPU iPhone OS 18_6_2 like Mac OS X) AppleWebKit/605.1.15 (KHTML, like Gecko) Mobile/15E148","398","708","420","","null","<div style=""font-size:60px;"">+</div>","null","fixation","","","","","","","","","","","",""
"html-button-response","41","123151","0.0-2.0-1.19","1027","17","pre","6","afternoon","2026-03-22","2026-04-03","2026-03-27T20:25:09.358Z","Mozilla/5.0 (iPhone; CPU iPhone OS 18_6_2 like Mac OS X) AppleWebKit/605.1.15 (KHTML, like Gecko) Mobile/15E148","398","708","420","","1565","<div class=""prompt"" style=""font-size:24px; margin-bottom:20px;"">Which word describes you more?</div>","1","pairing","20","hopeless","slob","NegNeg","1","51","negative","negative","50","slob","right","true"
"html-keyboard-response","42","123952","0.0-2.0-0.20","1027","17","pre","6","afternoon","2026-03-22","2026-04-03","2026-03-27T20:25:09.358Z","Mozilla/5.0 (iPhone; CPU iPhone OS 18_6_2 like Mac OS X) AppleWebKit/605.1.15 (KHTML, like Gecko) Mobile/15E148","398","708","420","","null","<div style=""font-size:60px;"">+</div>","null","fixation","","","","","","","","","","","",""
"html-button-response","43","126000","0.0-2.0-1.20","1027","17","pre","6","afternoon","2026-03-22","2026-04-03","2026-03-27T20:25:09.358Z","Mozilla/5.0 (iPhone; CPU iPhone OS 18_6_2 like Mac OS X) AppleWebKit/605.1.15 (KHTML, like Gecko) Mobile/15E148","398","708","420","","2047","<div class=""prompt"" style=""font-size:24px; margin-bottom:20px;"">Which word describes you more?</div>","1","pairing","21","untrustworthy","pest","NegNeg","0","2","negative","negative","2","pest","right","true"
"html-keyboard-response","44","126802","0.0-2.0-0.21","1027","17","pre","6","afternoon","2026-03-22","2026-04-03","2026-03-27T20:25:09.358Z","Mozilla/5.0 (iPhone; CPU iPhone OS 18_6_2 like Mac OS X) AppleWebKit/605.1.15 (KHTML, like Gecko) Mobile/15E148","398","708","420","","null","<div style=""font-size:60px;"">+</div>","null","fixation","","","","","","","","","","","",""
"html-button-response","45","129150","0.0-2.0-1.21","1027","17","pre","6","afternoon","2026-03-22","2026-04-03","2026-03-27T20:25:09.358Z","Mozilla/5.0 (iPhone; CPU iPhone OS 18_6_2 like Mac OS X) AppleWebKit/605.1.15 (KHTML, like Gecko) Mobile/15E148","398","708","420","","2347","<div class=""prompt"" style=""font-size:24px; margin-bottom:20px;"">Which word describes you more?</div>","1","pairing","22","distressed","authentic","PosNeg","48","96","negative","positive","48","authentic","right","true"
"html-keyboard-response","46","129953","0.0-2.0-0.22","1027","17","pre","6","afternoon","2026-03-22","2026-04-03","2026-03-27T20:25:09.358Z","Mozilla/5.0 (iPhone; CPU iPhone OS 18_6_2 like Mac OS X) AppleWebKit/605.1.15 (KHTML, like Gecko) Mobile/15E148","398","708","420","","null","<div style=""font-size:60px;"">+</div>","null","fixation","","","","","","","","","","","",""
"html-button-response","47","131503","0.0-2.0-1.22","1027","17","pre","6","afternoon","2026-03-22","2026-04-03","2026-03-27T20:25:09.358Z","Mozilla/5.0 (iPhone; CPU iPhone OS 18_6_2 like Mac OS X) AppleWebKit/605.1.15 (KHTML, like Gecko) Mobile/15E148","398","708","420","","1548","<div class=""prompt"" style=""font-size:24px; margin-bottom:20px;"">Which word describes you more?</div>","1","pairing","23","bully","loser","NegNeg","1","50","negative","negative","49","loser","right","true"
"html-keyboard-response","48","132305","0.0-2.0-0.23","1027","17","pre","6","afternoon","2026-03-22","2026-04-03","2026-03-27T20:25:09.358Z","Mozilla/5.0 (iPhone; CPU iPhone OS 18_6_2 like Mac OS X) AppleWebKit/605.1.15 (KHTML, like Gecko) Mobile/15E148","398","708","420","","null","<div style=""font-size:60px;"">+</div>","null","fixation","","","","","","","","","","","",""
"html-button-response","49","134052","0.0-2.0-1.23","1027","17","pre","6","afternoon","2026-03-22","2026-04-03","2026-03-27T20:25:09.358Z","Mozilla/5.0 (iPhone; CPU iPhone OS 18_6_2 like Mac OS X) AppleWebKit/605.1.15 (KHTML, like Gecko) Mobile/15E148","398","708","420","","1745","<div class=""prompt"" style=""font-size:24px; margin-bottom:20px;"">Which word describes you more?</div>","0","pairing","24","healthy","prick","PosNeg","59","0","positive","negative","59","healthy","left","true"
"instructions","50","136936","0.0-3.0","1027","17","pre","6","afternoon","2026-03-22","2026-04-03","2026-03-27T20:25:09.358Z","Mozilla/5.0 (iPhone; CPU iPhone OS 18_6_2 like Mac OS X) AppleWebKit/605.1.15 (KHTML, like Gecko) Mobile/15E148","398","708","420","[{""page_index"":0,""viewing_time"":2882}]","2883","","","","","","","","","","","","","","",""
