"trial_type","trial_index","time_elapsed","internal_node_id","PUNS_ID","session_number","session_phase","session_day","session_slot","ema_start_date","ema_post_start_date","experiment_start","browser","screen_width","screen_height","timezone_offset","view_history","rt","stimulus","response","which_experiment_phase","trial_number","left_word","right_word","valence","left_base_rating","right_base_rating","left_valence","right_valence","abs_diff","participant_response","chosen_side","valid_response"
"pavlovia","0","2058","0.0-0.0","1026","20","pre","7","afternoon","2026-02-26","2026-03-10","2026-03-05T00:45:42.293Z","Mozilla/5.0 (iPhone; CPU iPhone OS 18_7 like Mac OS X) AppleWebKit/605.1.15 (KHTML, like Gecko) Mobile/15E148","370","647","480","","","","","","","","","","","","","","","","",""
"instructions","1","4486","0.0-1.0","1026","20","pre","7","afternoon","2026-02-26","2026-03-10","2026-03-05T00:45:42.293Z","Mozilla/5.0 (iPhone; CPU iPhone OS 18_7 like Mac OS X) AppleWebKit/605.1.15 (KHTML, like Gecko) Mobile/15E148","370","647","480","[{""page_index"":0,""viewing_time"":854},{""page_index"":1,""viewing_time"":436},{""page_index"":2,""viewing_time"":586},{""page_index"":3,""viewing_time"":550}]","2426","","","","","","","","","","","","","","",""
"html-keyboard-response","2","5291","0.0-2.0-0.0","1026","20","pre","7","afternoon","2026-02-26","2026-03-10","2026-03-05T00:45:42.293Z","Mozilla/5.0 (iPhone; CPU iPhone OS 18_7 like Mac OS X) AppleWebKit/605.1.15 (KHTML, like Gecko) Mobile/15E148","370","647","480","","null","<div style=""font-size:60px;"">+</div>","null","fixation","","","","","","","","","","","",""
"html-button-response","3","7022","0.0-2.0-1.0","1026","20","pre","7","afternoon","2026-02-26","2026-03-10","2026-03-05T00:45:42.293Z","Mozilla/5.0 (iPhone; CPU iPhone OS 18_7 like Mac OS X) AppleWebKit/605.1.15 (KHTML, like Gecko) Mobile/15E148","370","647","480","","1726","<div class=""prompt"" style=""font-size:24px; margin-bottom:20px;"">Which word describes you more?</div>","0","pairing","1","helper","tolerant","PosPos","100","29","positive","positive","71","helper","left","true"
"html-keyboard-response","4","7824","0.0-2.0-0.1","1026","20","pre","7","afternoon","2026-02-26","2026-03-10","2026-03-05T00:45:42.293Z","Mozilla/5.0 (iPhone; CPU iPhone OS 18_7 like Mac OS X) AppleWebKit/605.1.15 (KHTML, like Gecko) Mobile/15E148","370","647","480","","null","<div style=""font-size:60px;"">+</div>","null","fixation","","","","","","","","","","","",""
"html-button-response","5","8879","0.0-2.0-1.1","1026","20","pre","7","afternoon","2026-02-26","2026-03-10","2026-03-05T00:45:42.293Z","Mozilla/5.0 (iPhone; CPU iPhone OS 18_7 like Mac OS X) AppleWebKit/605.1.15 (KHTML, like Gecko) Mobile/15E148","370","647","480","","1053","<div class=""prompt"" style=""font-size:24px; margin-bottom:20px;"">Which word describes you more?</div>","1","pairing","2","jerk","smiley","PosNeg","0","9","negative","positive","9","smiley","right","true"
"html-keyboard-response","6","9680","0.0-2.0-0.2","1026","20","pre","7","afternoon","2026-02-26","2026-03-10","2026-03-05T00:45:42.293Z","Mozilla/5.0 (iPhone; CPU iPhone OS 18_7 like Mac OS X) AppleWebKit/605.1.15 (KHTML, like Gecko) Mobile/15E148","370","647","480","","null","<div style=""font-size:60px;"">+</div>","null","fixation","","","","","","","","","","","",""
"html-button-response","7","10520","0.0-2.0-1.2","1026","20","pre","7","afternoon","2026-02-26","2026-03-10","2026-03-05T00:45:42.293Z","Mozilla/5.0 (iPhone; CPU iPhone OS 18_7 like Mac OS X) AppleWebKit/605.1.15 (KHTML, like Gecko) Mobile/15E148","370","647","480","","838","<div class=""prompt"" style=""font-size:24px; margin-bottom:20px;"">Which word describes you more?</div>","1","pairing","3","anxious","smiley","PosNeg","35","9","negative","positive","26","smiley","right","true"
"html-keyboard-response","8","11322","0.0-2.0-0.3","1026","20","pre","7","afternoon","2026-02-26","2026-03-10","2026-03-05T00:45:42.293Z","Mozilla/5.0 (iPhone; CPU iPhone OS 18_7 like Mac OS X) AppleWebKit/605.1.15 (KHTML, like Gecko) Mobile/15E148","370","647","480","","null","<div style=""font-size:60px;"">+</div>","null","fixation","","","","","","","","","","","",""
"html-button-response","9","12427","0.0-2.0-1.3","1026","20","pre","7","afternoon","2026-02-26","2026-03-10","2026-03-05T00:45:42.293Z","Mozilla/5.0 (iPhone; CPU iPhone OS 18_7 like Mac OS X) AppleWebKit/605.1.15 (KHTML, like Gecko) Mobile/15E148","370","647","480","","1103","<div class=""prompt"" style=""font-size:24px; margin-bottom:20px;"">Which word describes you more?</div>","0","pairing","4","toxic","hateful","NegNeg","54","0","negative","negative","54","toxic","left","true"
"html-keyboard-response","10","13229","0.0-2.0-0.4","1026","20","pre","7","afternoon","2026-02-26","2026-03-10","2026-03-05T00:45:42.293Z","Mozilla/5.0 (iPhone; CPU iPhone OS 18_7 like Mac OS X) AppleWebKit/605.1.15 (KHTML, like Gecko) Mobile/15E148","370","647","480","","null","<div style=""font-size:60px;"">+</div>","null","fixation","","","","","","","","","","","",""
"html-button-response","11","14438","0.0-2.0-1.4","1026","20","pre","7","afternoon","2026-02-26","2026-03-10","2026-03-05T00:45:42.293Z","Mozilla/5.0 (iPhone; CPU iPhone OS 18_7 like Mac OS X) AppleWebKit/605.1.15 (KHTML, like Gecko) Mobile/15E148","370","647","480","","1207","<div class=""prompt"" style=""font-size:24px; margin-bottom:20px;"">Which word describes you more?</div>","1","pairing","5","spectacular","spontaneous","PosPos","53","100","positive","positive","47","spontaneous","right","true"
"html-keyboard-response","12","15240","0.0-2.0-0.5","1026","20","pre","7","afternoon","2026-02-26","2026-03-10","2026-03-05T00:45:42.293Z","Mozilla/5.0 (iPhone; CPU iPhone OS 18_7 like Mac OS X) AppleWebKit/605.1.15 (KHTML, like Gecko) Mobile/15E148","370","647","480","","null","<div style=""font-size:60px;"">+</div>","null","fixation","","","","","","","","","","","",""
"html-button-response","13","16322","0.0-2.0-1.5","1026","20","pre","7","afternoon","2026-02-26","2026-03-10","2026-03-05T00:45:42.293Z","Mozilla/5.0 (iPhone; CPU iPhone OS 18_7 like Mac OS X) AppleWebKit/605.1.15 (KHTML, like Gecko) Mobile/15E148","370","647","480","","1081","<div class=""prompt"" style=""font-size:24px; margin-bottom:20px;"">Which word describes you more?</div>","1","pairing","6","burden","problematic","NegNeg","0","36","negative","negative","36","problematic","right","true"
"html-keyboard-response","14","17124","0.0-2.0-0.6","1026","20","pre","7","afternoon","2026-02-26","2026-03-10","2026-03-05T00:45:42.293Z","Mozilla/5.0 (iPhone; CPU iPhone OS 18_7 like Mac OS X) AppleWebKit/605.1.15 (KHTML, like Gecko) Mobile/15E148","370","647","480","","null","<div style=""font-size:60px;"">+</div>","null","fixation","","","","","","","","","","","",""
"html-button-response","15","18456","0.0-2.0-1.6","1026","20","pre","7","afternoon","2026-02-26","2026-03-10","2026-03-05T00:45:42.293Z","Mozilla/5.0 (iPhone; CPU iPhone OS 18_7 like Mac OS X) AppleWebKit/605.1.15 (KHTML, like Gecko) Mobile/15E148","370","647","480","","1329","<div class=""prompt"" style=""font-size:24px; margin-bottom:20px;"">Which word describes you more?</div>","0","pairing","7","spectacular","defective","PosNeg","53","0","positive","negative","53","spectacular","left","true"
"html-keyboard-response","16","19257","0.0-2.0-0.7","1026","20","pre","7","afternoon","2026-02-26","2026-03-10","2026-03-05T00:45:42.293Z","Mozilla/5.0 (iPhone; CPU iPhone OS 18_7 like Mac OS X) AppleWebKit/605.1.15 (KHTML, like Gecko) Mobile/15E148","370","647","480","","null","<div style=""font-size:60px;"">+</div>","null","fixation","","","","","","","","","","","",""
"html-button-response","17","20700","0.0-2.0-1.7","1026","20","pre","7","afternoon","2026-02-26","2026-03-10","2026-03-05T00:45:42.293Z","Mozilla/5.0 (iPhone; CPU iPhone OS 18_7 like Mac OS X) AppleWebKit/605.1.15 (KHTML, like Gecko) Mobile/15E148","370","647","480","","1439","<div class=""prompt"" style=""font-size:24px; margin-bottom:20px;"">Which word describes you more?</div>","1","pairing","8","unpleasant","delight","PosNeg","0","65","negative","positive","65","delight","right","true"
"html-keyboard-response","18","21502","0.0-2.0-0.8","1026","20","pre","7","afternoon","2026-02-26","2026-03-10","2026-03-05T00:45:42.293Z","Mozilla/5.0 (iPhone; CPU iPhone OS 18_7 like Mac OS X) AppleWebKit/605.1.15 (KHTML, like Gecko) Mobile/15E148","370","647","480","","null","<div style=""font-size:60px;"">+</div>","null","fixation","","","","","","","","","","","",""
"html-button-response","19","22581","0.0-2.0-1.8","1026","20","pre","7","afternoon","2026-02-26","2026-03-10","2026-03-05T00:45:42.293Z","Mozilla/5.0 (iPhone; CPU iPhone OS 18_7 like Mac OS X) AppleWebKit/605.1.15 (KHTML, like Gecko) Mobile/15E148","370","647","480","","1077","<div class=""prompt"" style=""font-size:24px; margin-bottom:20px;"">Which word describes you more?</div>","1","pairing","9","toxic","smiley","PosNeg","54","9","negative","positive","45","smiley","right","true"
"html-keyboard-response","20","23383","0.0-2.0-0.9","1026","20","pre","7","afternoon","2026-02-26","2026-03-10","2026-03-05T00:45:42.293Z","Mozilla/5.0 (iPhone; CPU iPhone OS 18_7 like Mac OS X) AppleWebKit/605.1.15 (KHTML, like Gecko) Mobile/15E148","370","647","480","","null","<div style=""font-size:60px;"">+</div>","null","fixation","","","","","","","","","","","",""
"html-button-response","21","24415","0.0-2.0-1.9","1026","20","pre","7","afternoon","2026-02-26","2026-03-10","2026-03-05T00:45:42.293Z","Mozilla/5.0 (iPhone; CPU iPhone OS 18_7 like Mac OS X) AppleWebKit/605.1.15 (KHTML, like Gecko) Mobile/15E148","370","647","480","","1030","<div class=""prompt"" style=""font-size:24px; margin-bottom:20px;"">Which word describes you more?</div>","0","pairing","10","spontaneous","immoral","PosNeg","100","2","positive","negative","98","spontaneous","left","true"
"html-keyboard-response","22","25216","0.0-2.0-0.10","1026","20","pre","7","afternoon","2026-02-26","2026-03-10","2026-03-05T00:45:42.293Z","Mozilla/5.0 (iPhone; CPU iPhone OS 18_7 like Mac OS X) AppleWebKit/605.1.15 (KHTML, like Gecko) Mobile/15E148","370","647","480","","null","<div style=""font-size:60px;"">+</div>","null","fixation","","","","","","","","","","","",""
"html-button-response","23","26380","0.0-2.0-1.10","1026","20","pre","7","afternoon","2026-02-26","2026-03-10","2026-03-05T00:45:42.293Z","Mozilla/5.0 (iPhone; CPU iPhone OS 18_7 like Mac OS X) AppleWebKit/605.1.15 (KHTML, like Gecko) Mobile/15E148","370","647","480","","1162","<div class=""prompt"" style=""font-size:24px; margin-bottom:20px;"">Which word describes you more?</div>","0","pairing","11","champion","patient","PosPos","84","34","positive","positive","50","champion","left","true"
"html-keyboard-response","24","27183","0.0-2.0-0.11","1026","20","pre","7","afternoon","2026-02-26","2026-03-10","2026-03-05T00:45:42.293Z","Mozilla/5.0 (iPhone; CPU iPhone OS 18_7 like Mac OS X) AppleWebKit/605.1.15 (KHTML, like Gecko) Mobile/15E148","370","647","480","","null","<div style=""font-size:60px;"">+</div>","null","fixation","","","","","","","","","","","",""
"html-button-response","25","28373","0.0-2.0-1.11","1026","20","pre","7","afternoon","2026-02-26","2026-03-10","2026-03-05T00:45:42.293Z","Mozilla/5.0 (iPhone; CPU iPhone OS 18_7 like Mac OS X) AppleWebKit/605.1.15 (KHTML, like Gecko) Mobile/15E148","370","647","480","","1188","<div class=""prompt"" style=""font-size:24px; margin-bottom:20px;"">Which word describes you more?</div>","1","pairing","12","adorable","visionary","PosPos","0","100","positive","positive","100","visionary","right","true"
"html-keyboard-response","26","29175","0.0-2.0-0.12","1026","20","pre","7","afternoon","2026-02-26","2026-03-10","2026-03-05T00:45:42.293Z","Mozilla/5.0 (iPhone; CPU iPhone OS 18_7 like Mac OS X) AppleWebKit/605.1.15 (KHTML, like Gecko) Mobile/15E148","370","647","480","","null","<div style=""font-size:60px;"">+</div>","null","fixation","","","","","","","","","","","",""
"html-button-response","27","32891","0.0-2.0-1.12","1026","20","pre","7","afternoon","2026-02-26","2026-03-10","2026-03-05T00:45:42.293Z","Mozilla/5.0 (iPhone; CPU iPhone OS 18_7 like Mac OS X) AppleWebKit/605.1.15 (KHTML, like Gecko) Mobile/15E148","370","647","480","","3715","<div class=""prompt"" style=""font-size:24px; margin-bottom:20px;"">Which word describes you more?</div>","0","pairing","13","hopeful","hesitant","PosNeg","100","0","positive","negative","100","hopeful","left","true"
"html-keyboard-response","28","33693","0.0-2.0-0.13","1026","20","pre","7","afternoon","2026-02-26","2026-03-10","2026-03-05T00:45:42.293Z","Mozilla/5.0 (iPhone; CPU iPhone OS 18_7 like Mac OS X) AppleWebKit/605.1.15 (KHTML, like Gecko) Mobile/15E148","370","647","480","","null","<div style=""font-size:60px;"">+</div>","null","fixation","","","","","","","","","","","",""
"html-button-response","29","35924","0.0-2.0-1.13","1026","20","pre","7","afternoon","2026-02-26","2026-03-10","2026-03-05T00:45:42.293Z","Mozilla/5.0 (iPhone; CPU iPhone OS 18_7 like Mac OS X) AppleWebKit/605.1.15 (KHTML, like Gecko) Mobile/15E148","370","647","480","","2230","<div class=""prompt"" style=""font-size:24px; margin-bottom:20px;"">Which word describes you more?</div>","1","pairing","14","decisive","sensible","PosPos","100","95","positive","positive","5","sensible","right","true"
"html-keyboard-response","30","36726","0.0-2.0-0.14","1026","20","pre","7","afternoon","2026-02-26","2026-03-10","2026-03-05T00:45:42.293Z","Mozilla/5.0 (iPhone; CPU iPhone OS 18_7 like Mac OS X) AppleWebKit/605.1.15 (KHTML, like Gecko) Mobile/15E148","370","647","480","","null","<div style=""font-size:60px;"">+</div>","null","fixation","","","","","","","","","","","",""
"html-button-response","31","38325","0.0-2.0-1.14","1026","20","pre","7","afternoon","2026-02-26","2026-03-10","2026-03-05T00:45:42.293Z","Mozilla/5.0 (iPhone; CPU iPhone OS 18_7 like Mac OS X) AppleWebKit/605.1.15 (KHTML, like Gecko) Mobile/15E148","370","647","480","","1597","<div class=""prompt"" style=""font-size:24px; margin-bottom:20px;"">Which word describes you more?</div>","0","pairing","15","gentle","jealous","PosNeg","46","57","positive","negative","11","gentle","left","true"
"html-keyboard-response","32","39127","0.0-2.0-0.15","1026","20","pre","7","afternoon","2026-02-26","2026-03-10","2026-03-05T00:45:42.293Z","Mozilla/5.0 (iPhone; CPU iPhone OS 18_7 like Mac OS X) AppleWebKit/605.1.15 (KHTML, like Gecko) Mobile/15E148","370","647","480","","null","<div style=""font-size:60px;"">+</div>","null","fixation","","","","","","","","","","","",""
"html-button-response","33","40365","0.0-2.0-1.15","1026","20","pre","7","afternoon","2026-02-26","2026-03-10","2026-03-05T00:45:42.293Z","Mozilla/5.0 (iPhone; CPU iPhone OS 18_7 like Mac OS X) AppleWebKit/605.1.15 (KHTML, like Gecko) Mobile/15E148","370","647","480","","1236","<div class=""prompt"" style=""font-size:24px; margin-bottom:20px;"">Which word describes you more?</div>","0","pairing","16","tolerant","regretful","PosNeg","29","0","positive","negative","29","tolerant","left","true"
"html-keyboard-response","34","41167","0.0-2.0-0.16","1026","20","pre","7","afternoon","2026-02-26","2026-03-10","2026-03-05T00:45:42.293Z","Mozilla/5.0 (iPhone; CPU iPhone OS 18_7 like Mac OS X) AppleWebKit/605.1.15 (KHTML, like Gecko) Mobile/15E148","370","647","480","","null","<div style=""font-size:60px;"">+</div>","null","fixation","","","","","","","","","","","",""
"html-button-response","35","44058","0.0-2.0-1.16","1026","20","pre","7","afternoon","2026-02-26","2026-03-10","2026-03-05T00:45:42.293Z","Mozilla/5.0 (iPhone; CPU iPhone OS 18_7 like Mac OS X) AppleWebKit/605.1.15 (KHTML, like Gecko) Mobile/15E148","370","647","480","","2888","<div class=""prompt"" style=""font-size:24px; margin-bottom:20px;"">Which word describes you more?</div>","0","pairing","17","untrustworthy","degenerate","NegNeg","4","7","negative","negative","3","untrustworthy","left","true"
"html-keyboard-response","36","44860","0.0-2.0-0.17","1026","20","pre","7","afternoon","2026-02-26","2026-03-10","2026-03-05T00:45:42.293Z","Mozilla/5.0 (iPhone; CPU iPhone OS 18_7 like Mac OS X) AppleWebKit/605.1.15 (KHTML, like Gecko) Mobile/15E148","370","647","480","","null","<div style=""font-size:60px;"">+</div>","null","fixation","","","","","","","","","","","",""
"html-button-response","37","45959","0.0-2.0-1.17","1026","20","pre","7","afternoon","2026-02-26","2026-03-10","2026-03-05T00:45:42.293Z","Mozilla/5.0 (iPhone; CPU iPhone OS 18_7 like Mac OS X) AppleWebKit/605.1.15 (KHTML, like Gecko) Mobile/15E148","370","647","480","","1096","<div class=""prompt"" style=""font-size:24px; margin-bottom:20px;"">Which word describes you more?</div>","1","pairing","18","repulsive","disgrace","NegNeg","0","0","negative","negative","0","disgrace","right","true"
"html-keyboard-response","38","46761","0.0-2.0-0.18","1026","20","pre","7","afternoon","2026-02-26","2026-03-10","2026-03-05T00:45:42.293Z","Mozilla/5.0 (iPhone; CPU iPhone OS 18_7 like Mac OS X) AppleWebKit/605.1.15 (KHTML, like Gecko) Mobile/15E148","370","647","480","","null","<div style=""font-size:60px;"">+</div>","null","fixation","","","","","","","","","","","",""
"html-button-response","39","48634","0.0-2.0-1.18","1026","20","pre","7","afternoon","2026-02-26","2026-03-10","2026-03-05T00:45:42.293Z","Mozilla/5.0 (iPhone; CPU iPhone OS 18_7 like Mac OS X) AppleWebKit/605.1.15 (KHTML, like Gecko) Mobile/15E148","370","647","480","","1872","<div class=""prompt"" style=""font-size:24px; margin-bottom:20px;"">Which word describes you more?</div>","1","pairing","19","unfaithful","carefree","PosNeg","3","80","negative","positive","77","carefree","right","true"
"html-keyboard-response","40","49437","0.0-2.0-0.19","1026","20","pre","7","afternoon","2026-02-26","2026-03-10","2026-03-05T00:45:42.293Z","Mozilla/5.0 (iPhone; CPU iPhone OS 18_7 like Mac OS X) AppleWebKit/605.1.15 (KHTML, like Gecko) Mobile/15E148","370","647","480","","null","<div style=""font-size:60px;"">+</div>","null","fixation","","","","","","","","","","","",""
"html-button-response","41","50526","0.0-2.0-1.19","1026","20","pre","7","afternoon","2026-02-26","2026-03-10","2026-03-05T00:45:42.293Z","Mozilla/5.0 (iPhone; CPU iPhone OS 18_7 like Mac OS X) AppleWebKit/605.1.15 (KHTML, like Gecko) Mobile/15E148","370","647","480","","1088","<div class=""prompt"" style=""font-size:24px; margin-bottom:20px;"">Which word describes you more?</div>","1","pairing","20","esteemed","clever","PosPos","61","92","positive","positive","31","clever","right","true"
"html-keyboard-response","42","51328","0.0-2.0-0.20","1026","20","pre","7","afternoon","2026-02-26","2026-03-10","2026-03-05T00:45:42.293Z","Mozilla/5.0 (iPhone; CPU iPhone OS 18_7 like Mac OS X) AppleWebKit/605.1.15 (KHTML, like Gecko) Mobile/15E148","370","647","480","","null","<div style=""font-size:60px;"">+</div>","null","fixation","","","","","","","","","","","",""
"html-button-response","43","53002","0.0-2.0-1.20","1026","20","pre","7","afternoon","2026-02-26","2026-03-10","2026-03-05T00:45:42.293Z","Mozilla/5.0 (iPhone; CPU iPhone OS 18_7 like Mac OS X) AppleWebKit/605.1.15 (KHTML, like Gecko) Mobile/15E148","370","647","480","","1671","<div class=""prompt"" style=""font-size:24px; margin-bottom:20px;"">Which word describes you more?</div>","0","pairing","21","problematic","disgrace","NegNeg","36","0","negative","negative","36","problematic","left","true"
"html-keyboard-response","44","53804","0.0-2.0-0.21","1026","20","pre","7","afternoon","2026-02-26","2026-03-10","2026-03-05T00:45:42.293Z","Mozilla/5.0 (iPhone; CPU iPhone OS 18_7 like Mac OS X) AppleWebKit/605.1.15 (KHTML, like Gecko) Mobile/15E148","370","647","480","","null","<div style=""font-size:60px;"">+</div>","null","fixation","","","","","","","","","","","",""
"html-button-response","45","55169","0.0-2.0-1.21","1026","20","pre","7","afternoon","2026-02-26","2026-03-10","2026-03-05T00:45:42.293Z","Mozilla/5.0 (iPhone; CPU iPhone OS 18_7 like Mac OS X) AppleWebKit/605.1.15 (KHTML, like Gecko) Mobile/15E148","370","647","480","","1363","<div class=""prompt"" style=""font-size:24px; margin-bottom:20px;"">Which word describes you more?</div>","0","pairing","22","problematic","selfish","NegNeg","36","16","negative","negative","20","problematic","left","true"
"html-keyboard-response","46","55971","0.0-2.0-0.22","1026","20","pre","7","afternoon","2026-02-26","2026-03-10","2026-03-05T00:45:42.293Z","Mozilla/5.0 (iPhone; CPU iPhone OS 18_7 like Mac OS X) AppleWebKit/605.1.15 (KHTML, like Gecko) Mobile/15E148","370","647","480","","null","<div style=""font-size:60px;"">+</div>","null","fixation","","","","","","","","","","","",""
"html-button-response","47","56969","0.0-2.0-1.22","1026","20","pre","7","afternoon","2026-02-26","2026-03-10","2026-03-05T00:45:42.293Z","Mozilla/5.0 (iPhone; CPU iPhone OS 18_7 like Mac OS X) AppleWebKit/605.1.15 (KHTML, like Gecko) Mobile/15E148","370","647","480","","995","<div class=""prompt"" style=""font-size:24px; margin-bottom:20px;"">Which word describes you more?</div>","0","pairing","23","adorable","jealous","PosNeg","0","57","positive","negative","57","adorable","left","true"
"html-keyboard-response","48","57771","0.0-2.0-0.23","1026","20","pre","7","afternoon","2026-02-26","2026-03-10","2026-03-05T00:45:42.293Z","Mozilla/5.0 (iPhone; CPU iPhone OS 18_7 like Mac OS X) AppleWebKit/605.1.15 (KHTML, like Gecko) Mobile/15E148","370","647","480","","null","<div style=""font-size:60px;"">+</div>","null","fixation","","","","","","","","","","","",""
"html-button-response","49","59452","0.0-2.0-1.23","1026","20","pre","7","afternoon","2026-02-26","2026-03-10","2026-03-05T00:45:42.293Z","Mozilla/5.0 (iPhone; CPU iPhone OS 18_7 like Mac OS X) AppleWebKit/605.1.15 (KHTML, like Gecko) Mobile/15E148","370","647","480","","1679","<div class=""prompt"" style=""font-size:24px; margin-bottom:20px;"">Which word describes you more?</div>","1","pairing","24","fool","patient","PosNeg","0","34","negative","positive","34","patient","right","true"
"instructions","50","60410","0.0-3.0","1026","20","pre","7","afternoon","2026-02-26","2026-03-10","2026-03-05T00:45:42.293Z","Mozilla/5.0 (iPhone; CPU iPhone OS 18_7 like Mac OS X) AppleWebKit/605.1.15 (KHTML, like Gecko) Mobile/15E148","370","647","480","[{""page_index"":0,""viewing_time"":956}]","956","","","","","","","","","","","","","","",""
