"trial_type","trial_index","time_elapsed","internal_node_id","PUNS_ID","session_number","session_phase","session_day","session_slot","ema_start_date","ema_post_start_date","experiment_start","browser","screen_width","screen_height","timezone_offset","view_history","rt","stimulus","response","which_experiment_phase","trial_number","left_word","right_word","valence","left_base_rating","right_base_rating","left_valence","right_valence","abs_diff","participant_response","chosen_side","valid_response"
"pavlovia","0","1407","0.0-0.0","1032","19","pre","7","morning","2026-04-15","2026-04-27","2026-04-21T18:21:17.532Z","Mozilla/5.0 (Linux; Android 16; Pixel 9 Pro Build/CP1A.260405.005; wv) AppleWebKit/537.36 (KHTML, like Gecko) Version/4.0 Chrome/147.0.7727.55 Mobile Safari/537.36","394","719","420","","","","","","","","","","","","","","","","",""
"instructions","1","12864","0.0-1.0","1032","19","pre","7","morning","2026-04-15","2026-04-27","2026-04-21T18:21:17.532Z","Mozilla/5.0 (Linux; Android 16; Pixel 9 Pro Build/CP1A.260405.005; wv) AppleWebKit/537.36 (KHTML, like Gecko) Version/4.0 Chrome/147.0.7727.55 Mobile Safari/537.36","394","719","420","[{""page_index"":0,""viewing_time"":1162},{""page_index"":1,""viewing_time"":9151},{""page_index"":2,""viewing_time"":556},{""page_index"":3,""viewing_time"":580}]","11449","","","","","","","","","","","","","","",""
"html-keyboard-response","2","13671","0.0-2.0-0.0","1032","19","pre","7","morning","2026-04-15","2026-04-27","2026-04-21T18:21:17.532Z","Mozilla/5.0 (Linux; Android 16; Pixel 9 Pro Build/CP1A.260405.005; wv) AppleWebKit/537.36 (KHTML, like Gecko) Version/4.0 Chrome/147.0.7727.55 Mobile Safari/537.36","394","719","420","","null","<div style=""font-size:60px;"">+</div>","null","fixation","","","","","","","","","","","",""
"html-button-response","3","17741","0.0-2.0-1.0","1032","19","pre","7","morning","2026-04-15","2026-04-27","2026-04-21T18:21:17.532Z","Mozilla/5.0 (Linux; Android 16; Pixel 9 Pro Build/CP1A.260405.005; wv) AppleWebKit/537.36 (KHTML, like Gecko) Version/4.0 Chrome/147.0.7727.55 Mobile Safari/537.36","394","719","420","","4058","<div class=""prompt"" style=""font-size:24px; margin-bottom:20px;"">Which word describes you more?</div>","0","pairing","1","rude","inadequate","NegNeg","8","0","negative","negative","8","rude","left","true"
"html-keyboard-response","4","18546","0.0-2.0-0.1","1032","19","pre","7","morning","2026-04-15","2026-04-27","2026-04-21T18:21:17.532Z","Mozilla/5.0 (Linux; Android 16; Pixel 9 Pro Build/CP1A.260405.005; wv) AppleWebKit/537.36 (KHTML, like Gecko) Version/4.0 Chrome/147.0.7727.55 Mobile Safari/537.36","394","719","420","","null","<div style=""font-size:60px;"">+</div>","null","fixation","","","","","","","","","","","",""
"html-button-response","5","19791","0.0-2.0-1.1","1032","19","pre","7","morning","2026-04-15","2026-04-27","2026-04-21T18:21:17.532Z","Mozilla/5.0 (Linux; Android 16; Pixel 9 Pro Build/CP1A.260405.005; wv) AppleWebKit/537.36 (KHTML, like Gecko) Version/4.0 Chrome/147.0.7727.55 Mobile Safari/537.36","394","719","420","","1239","<div class=""prompt"" style=""font-size:24px; margin-bottom:20px;"">Which word describes you more?</div>","0","pairing","2","authentic","fun","PosPos","99","74","positive","positive","25","authentic","left","true"
"html-keyboard-response","6","20595","0.0-2.0-0.2","1032","19","pre","7","morning","2026-04-15","2026-04-27","2026-04-21T18:21:17.532Z","Mozilla/5.0 (Linux; Android 16; Pixel 9 Pro Build/CP1A.260405.005; wv) AppleWebKit/537.36 (KHTML, like Gecko) Version/4.0 Chrome/147.0.7727.55 Mobile Safari/537.36","394","719","420","","null","<div style=""font-size:60px;"">+</div>","null","fixation","","","","","","","","","","","",""
"html-button-response","7","22341","0.0-2.0-1.2","1032","19","pre","7","morning","2026-04-15","2026-04-27","2026-04-21T18:21:17.532Z","Mozilla/5.0 (Linux; Android 16; Pixel 9 Pro Build/CP1A.260405.005; wv) AppleWebKit/537.36 (KHTML, like Gecko) Version/4.0 Chrome/147.0.7727.55 Mobile Safari/537.36","394","719","420","","1735","<div class=""prompt"" style=""font-size:24px; margin-bottom:20px;"">Which word describes you more?</div>","1","pairing","3","menace","spontaneous","PosNeg","0","18","negative","positive","18","spontaneous","right","true"
"html-keyboard-response","8","23147","0.0-2.0-0.3","1032","19","pre","7","morning","2026-04-15","2026-04-27","2026-04-21T18:21:17.532Z","Mozilla/5.0 (Linux; Android 16; Pixel 9 Pro Build/CP1A.260405.005; wv) AppleWebKit/537.36 (KHTML, like Gecko) Version/4.0 Chrome/147.0.7727.55 Mobile Safari/537.36","394","719","420","","null","<div style=""font-size:60px;"">+</div>","null","fixation","","","","","","","","","","","",""
"html-button-response","9","24731","0.0-2.0-1.3","1032","19","pre","7","morning","2026-04-15","2026-04-27","2026-04-21T18:21:17.532Z","Mozilla/5.0 (Linux; Android 16; Pixel 9 Pro Build/CP1A.260405.005; wv) AppleWebKit/537.36 (KHTML, like Gecko) Version/4.0 Chrome/147.0.7727.55 Mobile Safari/537.36","394","719","420","","1578","<div class=""prompt"" style=""font-size:24px; margin-bottom:20px;"">Which word describes you more?</div>","1","pairing","4","unlucky","flawless","PosNeg","60","7","negative","positive","53","flawless","right","true"
"html-keyboard-response","10","25535","0.0-2.0-0.4","1032","19","pre","7","morning","2026-04-15","2026-04-27","2026-04-21T18:21:17.532Z","Mozilla/5.0 (Linux; Android 16; Pixel 9 Pro Build/CP1A.260405.005; wv) AppleWebKit/537.36 (KHTML, like Gecko) Version/4.0 Chrome/147.0.7727.55 Mobile Safari/537.36","394","719","420","","null","<div style=""font-size:60px;"">+</div>","null","fixation","","","","","","","","","","","",""
"html-button-response","11","26796","0.0-2.0-1.4","1032","19","pre","7","morning","2026-04-15","2026-04-27","2026-04-21T18:21:17.532Z","Mozilla/5.0 (Linux; Android 16; Pixel 9 Pro Build/CP1A.260405.005; wv) AppleWebKit/537.36 (KHTML, like Gecko) Version/4.0 Chrome/147.0.7727.55 Mobile Safari/537.36","394","719","420","","1255","<div class=""prompt"" style=""font-size:24px; margin-bottom:20px;"">Which word describes you more?</div>","0","pairing","5","healthy","energetic","PosPos","100","23","positive","positive","77","healthy","left","true"
"html-keyboard-response","12","27600","0.0-2.0-0.5","1032","19","pre","7","morning","2026-04-15","2026-04-27","2026-04-21T18:21:17.532Z","Mozilla/5.0 (Linux; Android 16; Pixel 9 Pro Build/CP1A.260405.005; wv) AppleWebKit/537.36 (KHTML, like Gecko) Version/4.0 Chrome/147.0.7727.55 Mobile Safari/537.36","394","719","420","","null","<div style=""font-size:60px;"">+</div>","null","fixation","","","","","","","","","","","",""
"html-button-response","13","29946","0.0-2.0-1.5","1032","19","pre","7","morning","2026-04-15","2026-04-27","2026-04-21T18:21:17.532Z","Mozilla/5.0 (Linux; Android 16; Pixel 9 Pro Build/CP1A.260405.005; wv) AppleWebKit/537.36 (KHTML, like Gecko) Version/4.0 Chrome/147.0.7727.55 Mobile Safari/537.36","394","719","420","","2333","<div class=""prompt"" style=""font-size:24px; margin-bottom:20px;"">Which word describes you more?</div>","1","pairing","6","disastrous","unlucky","NegNeg","1","60","negative","negative","59","unlucky","right","true"
"html-keyboard-response","14","30750","0.0-2.0-0.6","1032","19","pre","7","morning","2026-04-15","2026-04-27","2026-04-21T18:21:17.532Z","Mozilla/5.0 (Linux; Android 16; Pixel 9 Pro Build/CP1A.260405.005; wv) AppleWebKit/537.36 (KHTML, like Gecko) Version/4.0 Chrome/147.0.7727.55 Mobile Safari/537.36","394","719","420","","null","<div style=""font-size:60px;"">+</div>","null","fixation","","","","","","","","","","","",""
"html-button-response","15","32524","0.0-2.0-1.6","1032","19","pre","7","morning","2026-04-15","2026-04-27","2026-04-21T18:21:17.532Z","Mozilla/5.0 (Linux; Android 16; Pixel 9 Pro Build/CP1A.260405.005; wv) AppleWebKit/537.36 (KHTML, like Gecko) Version/4.0 Chrome/147.0.7727.55 Mobile Safari/537.36","394","719","420","","1768","<div class=""prompt"" style=""font-size:24px; margin-bottom:20px;"">Which word describes you more?</div>","1","pairing","7","energetic","lovable","PosPos","23","100","positive","positive","77","lovable","right","true"
"html-keyboard-response","16","33329","0.0-2.0-0.7","1032","19","pre","7","morning","2026-04-15","2026-04-27","2026-04-21T18:21:17.532Z","Mozilla/5.0 (Linux; Android 16; Pixel 9 Pro Build/CP1A.260405.005; wv) AppleWebKit/537.36 (KHTML, like Gecko) Version/4.0 Chrome/147.0.7727.55 Mobile Safari/537.36","394","719","420","","null","<div style=""font-size:60px;"">+</div>","null","fixation","","","","","","","","","","","",""
"html-button-response","17","34952","0.0-2.0-1.7","1032","19","pre","7","morning","2026-04-15","2026-04-27","2026-04-21T18:21:17.532Z","Mozilla/5.0 (Linux; Android 16; Pixel 9 Pro Build/CP1A.260405.005; wv) AppleWebKit/537.36 (KHTML, like Gecko) Version/4.0 Chrome/147.0.7727.55 Mobile Safari/537.36","394","719","420","","1616","<div class=""prompt"" style=""font-size:24px; margin-bottom:20px;"">Which word describes you more?</div>","0","pairing","8","satisfied","incompetent","PosNeg","50","0","positive","negative","50","satisfied","left","true"
"html-keyboard-response","18","35759","0.0-2.0-0.8","1032","19","pre","7","morning","2026-04-15","2026-04-27","2026-04-21T18:21:17.532Z","Mozilla/5.0 (Linux; Android 16; Pixel 9 Pro Build/CP1A.260405.005; wv) AppleWebKit/537.36 (KHTML, like Gecko) Version/4.0 Chrome/147.0.7727.55 Mobile Safari/537.36","394","719","420","","null","<div style=""font-size:60px;"">+</div>","null","fixation","","","","","","","","","","","",""
"html-button-response","19","38341","0.0-2.0-1.8","1032","19","pre","7","morning","2026-04-15","2026-04-27","2026-04-21T18:21:17.532Z","Mozilla/5.0 (Linux; Android 16; Pixel 9 Pro Build/CP1A.260405.005; wv) AppleWebKit/537.36 (KHTML, like Gecko) Version/4.0 Chrome/147.0.7727.55 Mobile Safari/537.36","394","719","420","","2576","<div class=""prompt"" style=""font-size:24px; margin-bottom:20px;"">Which word describes you more?</div>","0","pairing","9","decisive","quitter","PosNeg","32","11","positive","negative","21","decisive","left","true"
"html-keyboard-response","20","39145","0.0-2.0-0.9","1032","19","pre","7","morning","2026-04-15","2026-04-27","2026-04-21T18:21:17.532Z","Mozilla/5.0 (Linux; Android 16; Pixel 9 Pro Build/CP1A.260405.005; wv) AppleWebKit/537.36 (KHTML, like Gecko) Version/4.0 Chrome/147.0.7727.55 Mobile Safari/537.36","394","719","420","","null","<div style=""font-size:60px;"">+</div>","null","fixation","","","","","","","","","","","",""
"html-button-response","21","43405","0.0-2.0-1.9","1032","19","pre","7","morning","2026-04-15","2026-04-27","2026-04-21T18:21:17.532Z","Mozilla/5.0 (Linux; Android 16; Pixel 9 Pro Build/CP1A.260405.005; wv) AppleWebKit/537.36 (KHTML, like Gecko) Version/4.0 Chrome/147.0.7727.55 Mobile Safari/537.36","394","719","420","","4256","<div class=""prompt"" style=""font-size:24px; margin-bottom:20px;"">Which word describes you more?</div>","1","pairing","10","unwanted","untrustworthy","NegNeg","2","0","negative","negative","2","untrustworthy","right","true"
"html-keyboard-response","22","44210","0.0-2.0-0.10","1032","19","pre","7","morning","2026-04-15","2026-04-27","2026-04-21T18:21:17.532Z","Mozilla/5.0 (Linux; Android 16; Pixel 9 Pro Build/CP1A.260405.005; wv) AppleWebKit/537.36 (KHTML, like Gecko) Version/4.0 Chrome/147.0.7727.55 Mobile Safari/537.36","394","719","420","","null","<div style=""font-size:60px;"">+</div>","null","fixation","","","","","","","","","","","",""
"html-button-response","23","46006","0.0-2.0-1.10","1032","19","pre","7","morning","2026-04-15","2026-04-27","2026-04-21T18:21:17.532Z","Mozilla/5.0 (Linux; Android 16; Pixel 9 Pro Build/CP1A.260405.005; wv) AppleWebKit/537.36 (KHTML, like Gecko) Version/4.0 Chrome/147.0.7727.55 Mobile Safari/537.36","394","719","420","","1789","<div class=""prompt"" style=""font-size:24px; margin-bottom:20px;"">Which word describes you more?</div>","0","pairing","11","problematic","loser","NegNeg","35","0","negative","negative","35","problematic","left","true"
"html-keyboard-response","24","46808","0.0-2.0-0.11","1032","19","pre","7","morning","2026-04-15","2026-04-27","2026-04-21T18:21:17.532Z","Mozilla/5.0 (Linux; Android 16; Pixel 9 Pro Build/CP1A.260405.005; wv) AppleWebKit/537.36 (KHTML, like Gecko) Version/4.0 Chrome/147.0.7727.55 Mobile Safari/537.36","394","719","420","","null","<div style=""font-size:60px;"">+</div>","null","fixation","","","","","","","","","","","",""
"html-button-response","25","48452","0.0-2.0-1.11","1032","19","pre","7","morning","2026-04-15","2026-04-27","2026-04-21T18:21:17.532Z","Mozilla/5.0 (Linux; Android 16; Pixel 9 Pro Build/CP1A.260405.005; wv) AppleWebKit/537.36 (KHTML, like Gecko) Version/4.0 Chrome/147.0.7727.55 Mobile Safari/537.36","394","719","420","","1639","<div class=""prompt"" style=""font-size:24px; margin-bottom:20px;"">Which word describes you more?</div>","1","pairing","12","dull","hesitant","NegNeg","6","28","negative","negative","22","hesitant","right","true"
"html-keyboard-response","26","49257","0.0-2.0-0.12","1032","19","pre","7","morning","2026-04-15","2026-04-27","2026-04-21T18:21:17.532Z","Mozilla/5.0 (Linux; Android 16; Pixel 9 Pro Build/CP1A.260405.005; wv) AppleWebKit/537.36 (KHTML, like Gecko) Version/4.0 Chrome/147.0.7727.55 Mobile Safari/537.36","394","719","420","","null","<div style=""font-size:60px;"">+</div>","null","fixation","","","","","","","","","","","",""
"html-button-response","27","50403","0.0-2.0-1.12","1032","19","pre","7","morning","2026-04-15","2026-04-27","2026-04-21T18:21:17.532Z","Mozilla/5.0 (Linux; Android 16; Pixel 9 Pro Build/CP1A.260405.005; wv) AppleWebKit/537.36 (KHTML, like Gecko) Version/4.0 Chrome/147.0.7727.55 Mobile Safari/537.36","394","719","420","","1140","<div class=""prompt"" style=""font-size:24px; margin-bottom:20px;"">Which word describes you more?</div>","0","pairing","13","visionary","humorous","PosPos","98","51","positive","positive","47","visionary","left","true"
"html-keyboard-response","28","51208","0.0-2.0-0.13","1032","19","pre","7","morning","2026-04-15","2026-04-27","2026-04-21T18:21:17.532Z","Mozilla/5.0 (Linux; Android 16; Pixel 9 Pro Build/CP1A.260405.005; wv) AppleWebKit/537.36 (KHTML, like Gecko) Version/4.0 Chrome/147.0.7727.55 Mobile Safari/537.36","394","719","420","","null","<div style=""font-size:60px;"">+</div>","null","fixation","","","","","","","","","","","",""
"html-button-response","29","52557","0.0-2.0-1.13","1032","19","pre","7","morning","2026-04-15","2026-04-27","2026-04-21T18:21:17.532Z","Mozilla/5.0 (Linux; Android 16; Pixel 9 Pro Build/CP1A.260405.005; wv) AppleWebKit/537.36 (KHTML, like Gecko) Version/4.0 Chrome/147.0.7727.55 Mobile Safari/537.36","394","719","420","","1340","<div class=""prompt"" style=""font-size:24px; margin-bottom:20px;"">Which word describes you more?</div>","1","pairing","14","uninvited","cooperative","PosNeg","5","42","negative","positive","37","cooperative","right","true"
"html-keyboard-response","30","53361","0.0-2.0-0.14","1032","19","pre","7","morning","2026-04-15","2026-04-27","2026-04-21T18:21:17.532Z","Mozilla/5.0 (Linux; Android 16; Pixel 9 Pro Build/CP1A.260405.005; wv) AppleWebKit/537.36 (KHTML, like Gecko) Version/4.0 Chrome/147.0.7727.55 Mobile Safari/537.36","394","719","420","","null","<div style=""font-size:60px;"">+</div>","null","fixation","","","","","","","","","","","",""
"html-button-response","31","58368","0.0-2.0-1.14","1032","19","pre","7","morning","2026-04-15","2026-04-27","2026-04-21T18:21:17.532Z","Mozilla/5.0 (Linux; Android 16; Pixel 9 Pro Build/CP1A.260405.005; wv) AppleWebKit/537.36 (KHTML, like Gecko) Version/4.0 Chrome/147.0.7727.55 Mobile Safari/537.36","394","719","420","","null","<div class=""prompt"" style=""font-size:24px; margin-bottom:20px;"">Which word describes you more?</div>","null","pairing","15","graceful","empty","PosNeg","63","10","positive","negative","53","null","null","false"
"html-keyboard-response","32","59175","0.0-2.0-0.15","1032","19","pre","7","morning","2026-04-15","2026-04-27","2026-04-21T18:21:17.532Z","Mozilla/5.0 (Linux; Android 16; Pixel 9 Pro Build/CP1A.260405.005; wv) AppleWebKit/537.36 (KHTML, like Gecko) Version/4.0 Chrome/147.0.7727.55 Mobile Safari/537.36","394","719","420","","null","<div style=""font-size:60px;"">+</div>","null","fixation","","","","","","","","","","","",""
"html-button-response","33","60954","0.0-2.0-1.15","1032","19","pre","7","morning","2026-04-15","2026-04-27","2026-04-21T18:21:17.532Z","Mozilla/5.0 (Linux; Android 16; Pixel 9 Pro Build/CP1A.260405.005; wv) AppleWebKit/537.36 (KHTML, like Gecko) Version/4.0 Chrome/147.0.7727.55 Mobile Safari/537.36","394","719","420","","1773","<div class=""prompt"" style=""font-size:24px; margin-bottom:20px;"">Which word describes you more?</div>","1","pairing","16","regretful","peaceful","PosNeg","9","69","negative","positive","60","peaceful","right","true"
"html-keyboard-response","34","61758","0.0-2.0-0.16","1032","19","pre","7","morning","2026-04-15","2026-04-27","2026-04-21T18:21:17.532Z","Mozilla/5.0 (Linux; Android 16; Pixel 9 Pro Build/CP1A.260405.005; wv) AppleWebKit/537.36 (KHTML, like Gecko) Version/4.0 Chrome/147.0.7727.55 Mobile Safari/537.36","394","719","420","","null","<div style=""font-size:60px;"">+</div>","null","fixation","","","","","","","","","","","",""
"html-button-response","35","63346","0.0-2.0-1.16","1032","19","pre","7","morning","2026-04-15","2026-04-27","2026-04-21T18:21:17.532Z","Mozilla/5.0 (Linux; Android 16; Pixel 9 Pro Build/CP1A.260405.005; wv) AppleWebKit/537.36 (KHTML, like Gecko) Version/4.0 Chrome/147.0.7727.55 Mobile Safari/537.36","394","719","420","","1581","<div class=""prompt"" style=""font-size:24px; margin-bottom:20px;"">Which word describes you more?</div>","1","pairing","17","respectable","asset","PosPos","98","100","positive","positive","2","asset","right","true"
"html-keyboard-response","36","64150","0.0-2.0-0.17","1032","19","pre","7","morning","2026-04-15","2026-04-27","2026-04-21T18:21:17.532Z","Mozilla/5.0 (Linux; Android 16; Pixel 9 Pro Build/CP1A.260405.005; wv) AppleWebKit/537.36 (KHTML, like Gecko) Version/4.0 Chrome/147.0.7727.55 Mobile Safari/537.36","394","719","420","","null","<div style=""font-size:60px;"">+</div>","null","fixation","","","","","","","","","","","",""
"html-button-response","37","65955","0.0-2.0-1.17","1032","19","pre","7","morning","2026-04-15","2026-04-27","2026-04-21T18:21:17.532Z","Mozilla/5.0 (Linux; Android 16; Pixel 9 Pro Build/CP1A.260405.005; wv) AppleWebKit/537.36 (KHTML, like Gecko) Version/4.0 Chrome/147.0.7727.55 Mobile Safari/537.36","394","719","420","","1798","<div class=""prompt"" style=""font-size:24px; margin-bottom:20px;"">Which word describes you more?</div>","0","pairing","18","energetic","degenerate","PosNeg","23","49","positive","negative","26","energetic","left","true"
"html-keyboard-response","38","66760","0.0-2.0-0.18","1032","19","pre","7","morning","2026-04-15","2026-04-27","2026-04-21T18:21:17.532Z","Mozilla/5.0 (Linux; Android 16; Pixel 9 Pro Build/CP1A.260405.005; wv) AppleWebKit/537.36 (KHTML, like Gecko) Version/4.0 Chrome/147.0.7727.55 Mobile Safari/537.36","394","719","420","","null","<div style=""font-size:60px;"">+</div>","null","fixation","","","","","","","","","","","",""
"html-button-response","39","70923","0.0-2.0-1.18","1032","19","pre","7","morning","2026-04-15","2026-04-27","2026-04-21T18:21:17.532Z","Mozilla/5.0 (Linux; Android 16; Pixel 9 Pro Build/CP1A.260405.005; wv) AppleWebKit/537.36 (KHTML, like Gecko) Version/4.0 Chrome/147.0.7727.55 Mobile Safari/537.36","394","719","420","","4155","<div class=""prompt"" style=""font-size:24px; margin-bottom:20px;"">Which word describes you more?</div>","0","pairing","19","flawless","awkward","PosNeg","7","60","positive","negative","53","flawless","left","true"
"html-keyboard-response","40","71729","0.0-2.0-0.19","1032","19","pre","7","morning","2026-04-15","2026-04-27","2026-04-21T18:21:17.532Z","Mozilla/5.0 (Linux; Android 16; Pixel 9 Pro Build/CP1A.260405.005; wv) AppleWebKit/537.36 (KHTML, like Gecko) Version/4.0 Chrome/147.0.7727.55 Mobile Safari/537.36","394","719","420","","null","<div style=""font-size:60px;"">+</div>","null","fixation","","","","","","","","","","","",""
"html-button-response","41","74267","0.0-2.0-1.19","1032","19","pre","7","morning","2026-04-15","2026-04-27","2026-04-21T18:21:17.532Z","Mozilla/5.0 (Linux; Android 16; Pixel 9 Pro Build/CP1A.260405.005; wv) AppleWebKit/537.36 (KHTML, like Gecko) Version/4.0 Chrome/147.0.7727.55 Mobile Safari/537.36","394","719","420","","2530","<div class=""prompt"" style=""font-size:24px; margin-bottom:20px;"">Which word describes you more?</div>","0","pairing","20","visionary","malicious","PosNeg","98","0","positive","negative","98","visionary","left","true"
"html-keyboard-response","42","75072","0.0-2.0-0.20","1032","19","pre","7","morning","2026-04-15","2026-04-27","2026-04-21T18:21:17.532Z","Mozilla/5.0 (Linux; Android 16; Pixel 9 Pro Build/CP1A.260405.005; wv) AppleWebKit/537.36 (KHTML, like Gecko) Version/4.0 Chrome/147.0.7727.55 Mobile Safari/537.36","394","719","420","","null","<div style=""font-size:60px;"">+</div>","null","fixation","","","","","","","","","","","",""
"html-button-response","43","77653","0.0-2.0-1.20","1032","19","pre","7","morning","2026-04-15","2026-04-27","2026-04-21T18:21:17.532Z","Mozilla/5.0 (Linux; Android 16; Pixel 9 Pro Build/CP1A.260405.005; wv) AppleWebKit/537.36 (KHTML, like Gecko) Version/4.0 Chrome/147.0.7727.55 Mobile Safari/537.36","394","719","420","","2575","<div class=""prompt"" style=""font-size:24px; margin-bottom:20px;"">Which word describes you more?</div>","1","pairing","21","unlucky","satisfied","PosNeg","60","50","negative","positive","10","satisfied","right","true"
"html-keyboard-response","44","78458","0.0-2.0-0.21","1032","19","pre","7","morning","2026-04-15","2026-04-27","2026-04-21T18:21:17.532Z","Mozilla/5.0 (Linux; Android 16; Pixel 9 Pro Build/CP1A.260405.005; wv) AppleWebKit/537.36 (KHTML, like Gecko) Version/4.0 Chrome/147.0.7727.55 Mobile Safari/537.36","394","719","420","","null","<div style=""font-size:60px;"">+</div>","null","fixation","","","","","","","","","","","",""
"html-button-response","45","83017","0.0-2.0-1.21","1032","19","pre","7","morning","2026-04-15","2026-04-27","2026-04-21T18:21:17.532Z","Mozilla/5.0 (Linux; Android 16; Pixel 9 Pro Build/CP1A.260405.005; wv) AppleWebKit/537.36 (KHTML, like Gecko) Version/4.0 Chrome/147.0.7727.55 Mobile Safari/537.36","394","719","420","","4552","<div class=""prompt"" style=""font-size:24px; margin-bottom:20px;"">Which word describes you more?</div>","0","pairing","22","hesitant","liar","NegNeg","28","14","negative","negative","14","hesitant","left","true"
"html-keyboard-response","46","83823","0.0-2.0-0.22","1032","19","pre","7","morning","2026-04-15","2026-04-27","2026-04-21T18:21:17.532Z","Mozilla/5.0 (Linux; Android 16; Pixel 9 Pro Build/CP1A.260405.005; wv) AppleWebKit/537.36 (KHTML, like Gecko) Version/4.0 Chrome/147.0.7727.55 Mobile Safari/537.36","394","719","420","","null","<div style=""font-size:60px;"">+</div>","null","fixation","","","","","","","","","","","",""
"html-button-response","47","85279","0.0-2.0-1.22","1032","19","pre","7","morning","2026-04-15","2026-04-27","2026-04-21T18:21:17.532Z","Mozilla/5.0 (Linux; Android 16; Pixel 9 Pro Build/CP1A.260405.005; wv) AppleWebKit/537.36 (KHTML, like Gecko) Version/4.0 Chrome/147.0.7727.55 Mobile Safari/537.36","394","719","420","","1451","<div class=""prompt"" style=""font-size:24px; margin-bottom:20px;"">Which word describes you more?</div>","1","pairing","23","anxious","valued","PosNeg","29","100","negative","positive","71","valued","right","true"
"html-keyboard-response","48","86083","0.0-2.0-0.23","1032","19","pre","7","morning","2026-04-15","2026-04-27","2026-04-21T18:21:17.532Z","Mozilla/5.0 (Linux; Android 16; Pixel 9 Pro Build/CP1A.260405.005; wv) AppleWebKit/537.36 (KHTML, like Gecko) Version/4.0 Chrome/147.0.7727.55 Mobile Safari/537.36","394","719","420","","null","<div style=""font-size:60px;"">+</div>","null","fixation","","","","","","","","","","","",""
"html-button-response","49","87355","0.0-2.0-1.23","1032","19","pre","7","morning","2026-04-15","2026-04-27","2026-04-21T18:21:17.532Z","Mozilla/5.0 (Linux; Android 16; Pixel 9 Pro Build/CP1A.260405.005; wv) AppleWebKit/537.36 (KHTML, like Gecko) Version/4.0 Chrome/147.0.7727.55 Mobile Safari/537.36","394","719","420","","1265","<div class=""prompt"" style=""font-size:24px; margin-bottom:20px;"">Which word describes you more?</div>","1","pairing","24","enthusiastic","smart","PosPos","50","100","positive","positive","50","smart","right","true"
"instructions","50","88098","0.0-3.0","1032","19","pre","7","morning","2026-04-15","2026-04-27","2026-04-21T18:21:17.532Z","Mozilla/5.0 (Linux; Android 16; Pixel 9 Pro Build/CP1A.260405.005; wv) AppleWebKit/537.36 (KHTML, like Gecko) Version/4.0 Chrome/147.0.7727.55 Mobile Safari/537.36","394","719","420","[{""page_index"":0,""viewing_time"":740}]","742","","","","","","","","","","","","","","",""
