"trial_type","trial_index","time_elapsed","internal_node_id","PUNS_ID","session_number","session_phase","session_day","session_slot","ema_start_date","ema_post_start_date","experiment_start","browser","screen_width","screen_height","timezone_offset","view_history","rt","stimulus","response","which_experiment_phase","trial_number","left_word","right_word","valence","left_base_rating","right_base_rating","left_valence","right_valence","abs_diff","participant_response","chosen_side","valid_response"
"pavlovia","0","2506","0.0-0.0","1021","38","post","3","afternoon","2026-02-12","2026-02-24","2026-02-27T01:07:45.179Z","Mozilla/5.0 (iPhone; CPU iPhone OS 18_7 like Mac OS X) AppleWebKit/605.1.15 (KHTML, like Gecko) Mobile/15E148","408","729","480","","","","","","","","","","","","","","","","",""
"instructions","1","12156","0.0-1.0","1021","38","post","3","afternoon","2026-02-12","2026-02-24","2026-02-27T01:07:45.179Z","Mozilla/5.0 (iPhone; CPU iPhone OS 18_7 like Mac OS X) AppleWebKit/605.1.15 (KHTML, like Gecko) Mobile/15E148","408","729","480","[{""page_index"":0,""viewing_time"":2911},{""page_index"":1,""viewing_time"":2086},{""page_index"":2,""viewing_time"":3066},{""page_index"":3,""viewing_time"":1582}]","9646","","","","","","","","","","","","","","",""
"html-keyboard-response","2","12959","0.0-2.0-0.0","1021","38","post","3","afternoon","2026-02-12","2026-02-24","2026-02-27T01:07:45.179Z","Mozilla/5.0 (iPhone; CPU iPhone OS 18_7 like Mac OS X) AppleWebKit/605.1.15 (KHTML, like Gecko) Mobile/15E148","408","729","480","","null","<div style=""font-size:60px;"">+</div>","null","fixation","","","","","","","","","","","",""
"html-button-response","3","14739","0.0-2.0-1.0","1021","38","post","3","afternoon","2026-02-12","2026-02-24","2026-02-27T01:07:45.179Z","Mozilla/5.0 (iPhone; CPU iPhone OS 18_7 like Mac OS X) AppleWebKit/605.1.15 (KHTML, like Gecko) Mobile/15E148","408","729","480","","1772","<div class=""prompt"" style=""font-size:24px; margin-bottom:20px;"">Which word describes you more?</div>","0","pairing","1","honest","anxious","PosNeg","92","72","positive","negative","20","honest","left","true"
"html-keyboard-response","4","15542","0.0-2.0-0.1","1021","38","post","3","afternoon","2026-02-12","2026-02-24","2026-02-27T01:07:45.179Z","Mozilla/5.0 (iPhone; CPU iPhone OS 18_7 like Mac OS X) AppleWebKit/605.1.15 (KHTML, like Gecko) Mobile/15E148","408","729","480","","null","<div style=""font-size:60px;"">+</div>","null","fixation","","","","","","","","","","","",""
"html-button-response","5","16981","0.0-2.0-1.1","1021","38","post","3","afternoon","2026-02-12","2026-02-24","2026-02-27T01:07:45.179Z","Mozilla/5.0 (iPhone; CPU iPhone OS 18_7 like Mac OS X) AppleWebKit/605.1.15 (KHTML, like Gecko) Mobile/15E148","408","729","480","","1438","<div class=""prompt"" style=""font-size:24px; margin-bottom:20px;"">Which word describes you more?</div>","1","pairing","2","goodwilled","proficient","PosPos","94","95","positive","positive","1","proficient","right","true"
"html-keyboard-response","6","17783","0.0-2.0-0.2","1021","38","post","3","afternoon","2026-02-12","2026-02-24","2026-02-27T01:07:45.179Z","Mozilla/5.0 (iPhone; CPU iPhone OS 18_7 like Mac OS X) AppleWebKit/605.1.15 (KHTML, like Gecko) Mobile/15E148","408","729","480","","null","<div style=""font-size:60px;"">+</div>","null","fixation","","","","","","","","","","","",""
"html-button-response","7","19089","0.0-2.0-1.2","1021","38","post","3","afternoon","2026-02-12","2026-02-24","2026-02-27T01:07:45.179Z","Mozilla/5.0 (iPhone; CPU iPhone OS 18_7 like Mac OS X) AppleWebKit/605.1.15 (KHTML, like Gecko) Mobile/15E148","408","729","480","","1305","<div class=""prompt"" style=""font-size:24px; margin-bottom:20px;"">Which word describes you more?</div>","1","pairing","3","unwanted","anxious","NegNeg","5","72","negative","negative","67","anxious","right","true"
"html-keyboard-response","8","19891","0.0-2.0-0.3","1021","38","post","3","afternoon","2026-02-12","2026-02-24","2026-02-27T01:07:45.179Z","Mozilla/5.0 (iPhone; CPU iPhone OS 18_7 like Mac OS X) AppleWebKit/605.1.15 (KHTML, like Gecko) Mobile/15E148","408","729","480","","null","<div style=""font-size:60px;"">+</div>","null","fixation","","","","","","","","","","","",""
"html-button-response","9","23155","0.0-2.0-1.3","1021","38","post","3","afternoon","2026-02-12","2026-02-24","2026-02-27T01:07:45.179Z","Mozilla/5.0 (iPhone; CPU iPhone OS 18_7 like Mac OS X) AppleWebKit/605.1.15 (KHTML, like Gecko) Mobile/15E148","408","729","480","","3262","<div class=""prompt"" style=""font-size:24px; margin-bottom:20px;"">Which word describes you more?</div>","0","pairing","4","virtuous","fraud","PosNeg","93","0","positive","negative","93","virtuous","left","true"
"html-keyboard-response","10","23957","0.0-2.0-0.4","1021","38","post","3","afternoon","2026-02-12","2026-02-24","2026-02-27T01:07:45.179Z","Mozilla/5.0 (iPhone; CPU iPhone OS 18_7 like Mac OS X) AppleWebKit/605.1.15 (KHTML, like Gecko) Mobile/15E148","408","729","480","","null","<div style=""font-size:60px;"">+</div>","null","fixation","","","","","","","","","","","",""
"html-button-response","11","26515","0.0-2.0-1.4","1021","38","post","3","afternoon","2026-02-12","2026-02-24","2026-02-27T01:07:45.179Z","Mozilla/5.0 (iPhone; CPU iPhone OS 18_7 like Mac OS X) AppleWebKit/605.1.15 (KHTML, like Gecko) Mobile/15E148","408","729","480","","2557","<div class=""prompt"" style=""font-size:24px; margin-bottom:20px;"">Which word describes you more?</div>","1","pairing","5","expert","enthusiastic","PosPos","95","91","positive","positive","4","enthusiastic","right","true"
"html-keyboard-response","12","27317","0.0-2.0-0.5","1021","38","post","3","afternoon","2026-02-12","2026-02-24","2026-02-27T01:07:45.179Z","Mozilla/5.0 (iPhone; CPU iPhone OS 18_7 like Mac OS X) AppleWebKit/605.1.15 (KHTML, like Gecko) Mobile/15E148","408","729","480","","null","<div style=""font-size:60px;"">+</div>","null","fixation","","","","","","","","","","","",""
"html-button-response","13","28582","0.0-2.0-1.5","1021","38","post","3","afternoon","2026-02-12","2026-02-24","2026-02-27T01:07:45.179Z","Mozilla/5.0 (iPhone; CPU iPhone OS 18_7 like Mac OS X) AppleWebKit/605.1.15 (KHTML, like Gecko) Mobile/15E148","408","729","480","","1263","<div class=""prompt"" style=""font-size:24px; margin-bottom:20px;"">Which word describes you more?</div>","0","pairing","6","safe","malicious","PosNeg","95","17","positive","negative","78","safe","left","true"
"html-keyboard-response","14","29384","0.0-2.0-0.6","1021","38","post","3","afternoon","2026-02-12","2026-02-24","2026-02-27T01:07:45.179Z","Mozilla/5.0 (iPhone; CPU iPhone OS 18_7 like Mac OS X) AppleWebKit/605.1.15 (KHTML, like Gecko) Mobile/15E148","408","729","480","","null","<div style=""font-size:60px;"">+</div>","null","fixation","","","","","","","","","","","",""
"html-button-response","15","30631","0.0-2.0-1.6","1021","38","post","3","afternoon","2026-02-12","2026-02-24","2026-02-27T01:07:45.179Z","Mozilla/5.0 (iPhone; CPU iPhone OS 18_7 like Mac OS X) AppleWebKit/605.1.15 (KHTML, like Gecko) Mobile/15E148","408","729","480","","1245","<div class=""prompt"" style=""font-size:24px; margin-bottom:20px;"">Which word describes you more?</div>","1","pairing","7","stingy","fun","PosNeg","7","91","negative","positive","84","fun","right","true"
"html-keyboard-response","16","31433","0.0-2.0-0.7","1021","38","post","3","afternoon","2026-02-12","2026-02-24","2026-02-27T01:07:45.179Z","Mozilla/5.0 (iPhone; CPU iPhone OS 18_7 like Mac OS X) AppleWebKit/605.1.15 (KHTML, like Gecko) Mobile/15E148","408","729","480","","null","<div style=""font-size:60px;"">+</div>","null","fixation","","","","","","","","","","","",""
"html-button-response","17","33840","0.0-2.0-1.7","1021","38","post","3","afternoon","2026-02-12","2026-02-24","2026-02-27T01:07:45.179Z","Mozilla/5.0 (iPhone; CPU iPhone OS 18_7 like Mac OS X) AppleWebKit/605.1.15 (KHTML, like Gecko) Mobile/15E148","408","729","480","","2406","<div class=""prompt"" style=""font-size:24px; margin-bottom:20px;"">Which word describes you more?</div>","1","pairing","8","incompetent","heartbroken","NegNeg","0","56","negative","negative","56","heartbroken","right","true"
"html-keyboard-response","18","34642","0.0-2.0-0.8","1021","38","post","3","afternoon","2026-02-12","2026-02-24","2026-02-27T01:07:45.179Z","Mozilla/5.0 (iPhone; CPU iPhone OS 18_7 like Mac OS X) AppleWebKit/605.1.15 (KHTML, like Gecko) Mobile/15E148","408","729","480","","null","<div style=""font-size:60px;"">+</div>","null","fixation","","","","","","","","","","","",""
"html-button-response","19","36434","0.0-2.0-1.8","1021","38","post","3","afternoon","2026-02-12","2026-02-24","2026-02-27T01:07:45.179Z","Mozilla/5.0 (iPhone; CPU iPhone OS 18_7 like Mac OS X) AppleWebKit/605.1.15 (KHTML, like Gecko) Mobile/15E148","408","729","480","","1788","<div class=""prompt"" style=""font-size:24px; margin-bottom:20px;"">Which word describes you more?</div>","0","pairing","9","playful","patient","PosPos","99","60","positive","positive","39","playful","left","true"
"html-keyboard-response","20","37236","0.0-2.0-0.9","1021","38","post","3","afternoon","2026-02-12","2026-02-24","2026-02-27T01:07:45.179Z","Mozilla/5.0 (iPhone; CPU iPhone OS 18_7 like Mac OS X) AppleWebKit/605.1.15 (KHTML, like Gecko) Mobile/15E148","408","729","480","","null","<div style=""font-size:60px;"">+</div>","null","fixation","","","","","","","","","","","",""
"html-button-response","21","39266","0.0-2.0-1.9","1021","38","post","3","afternoon","2026-02-12","2026-02-24","2026-02-27T01:07:45.179Z","Mozilla/5.0 (iPhone; CPU iPhone OS 18_7 like Mac OS X) AppleWebKit/605.1.15 (KHTML, like Gecko) Mobile/15E148","408","729","480","","2028","<div class=""prompt"" style=""font-size:24px; margin-bottom:20px;"">Which word describes you more?</div>","0","pairing","10","heartbroken","flawless","PosNeg","56","50","negative","positive","6","heartbroken","left","true"
"html-keyboard-response","22","40068","0.0-2.0-0.10","1021","38","post","3","afternoon","2026-02-12","2026-02-24","2026-02-27T01:07:45.179Z","Mozilla/5.0 (iPhone; CPU iPhone OS 18_7 like Mac OS X) AppleWebKit/605.1.15 (KHTML, like Gecko) Mobile/15E148","408","729","480","","null","<div style=""font-size:60px;"">+</div>","null","fixation","","","","","","","","","","","",""
"html-button-response","23","41857","0.0-2.0-1.10","1021","38","post","3","afternoon","2026-02-12","2026-02-24","2026-02-27T01:07:45.179Z","Mozilla/5.0 (iPhone; CPU iPhone OS 18_7 like Mac OS X) AppleWebKit/605.1.15 (KHTML, like Gecko) Mobile/15E148","408","729","480","","1788","<div class=""prompt"" style=""font-size:24px; margin-bottom:20px;"">Which word describes you more?</div>","1","pairing","11","bully","healthy","PosNeg","29","84","negative","positive","55","healthy","right","true"
"html-keyboard-response","24","42660","0.0-2.0-0.11","1021","38","post","3","afternoon","2026-02-12","2026-02-24","2026-02-27T01:07:45.179Z","Mozilla/5.0 (iPhone; CPU iPhone OS 18_7 like Mac OS X) AppleWebKit/605.1.15 (KHTML, like Gecko) Mobile/15E148","408","729","480","","null","<div style=""font-size:60px;"">+</div>","null","fixation","","","","","","","","","","","",""
"html-button-response","25","44357","0.0-2.0-1.11","1021","38","post","3","afternoon","2026-02-12","2026-02-24","2026-02-27T01:07:45.179Z","Mozilla/5.0 (iPhone; CPU iPhone OS 18_7 like Mac OS X) AppleWebKit/605.1.15 (KHTML, like Gecko) Mobile/15E148","408","729","480","","1696","<div class=""prompt"" style=""font-size:24px; margin-bottom:20px;"">Which word describes you more?</div>","0","pairing","12","awkward","creep","NegNeg","22","5","negative","negative","17","awkward","left","true"
"html-keyboard-response","26","45160","0.0-2.0-0.12","1021","38","post","3","afternoon","2026-02-12","2026-02-24","2026-02-27T01:07:45.179Z","Mozilla/5.0 (iPhone; CPU iPhone OS 18_7 like Mac OS X) AppleWebKit/605.1.15 (KHTML, like Gecko) Mobile/15E148","408","729","480","","null","<div style=""font-size:60px;"">+</div>","null","fixation","","","","","","","","","","","",""
"html-button-response","27","46600","0.0-2.0-1.12","1021","38","post","3","afternoon","2026-02-12","2026-02-24","2026-02-27T01:07:45.179Z","Mozilla/5.0 (iPhone; CPU iPhone OS 18_7 like Mac OS X) AppleWebKit/605.1.15 (KHTML, like Gecko) Mobile/15E148","408","729","480","","1438","<div class=""prompt"" style=""font-size:24px; margin-bottom:20px;"">Which word describes you more?</div>","0","pairing","13","charming","liar","PosNeg","97","2","positive","negative","95","charming","left","true"
"html-keyboard-response","28","47402","0.0-2.0-0.13","1021","38","post","3","afternoon","2026-02-12","2026-02-24","2026-02-27T01:07:45.179Z","Mozilla/5.0 (iPhone; CPU iPhone OS 18_7 like Mac OS X) AppleWebKit/605.1.15 (KHTML, like Gecko) Mobile/15E148","408","729","480","","null","<div style=""font-size:60px;"">+</div>","null","fixation","","","","","","","","","","","",""
"html-button-response","29","49175","0.0-2.0-1.13","1021","38","post","3","afternoon","2026-02-12","2026-02-24","2026-02-27T01:07:45.179Z","Mozilla/5.0 (iPhone; CPU iPhone OS 18_7 like Mac OS X) AppleWebKit/605.1.15 (KHTML, like Gecko) Mobile/15E148","408","729","480","","1771","<div class=""prompt"" style=""font-size:24px; margin-bottom:20px;"">Which word describes you more?</div>","1","pairing","14","uninvited","flawless","PosNeg","28","50","negative","positive","22","flawless","right","true"
"html-keyboard-response","30","49977","0.0-2.0-0.14","1021","38","post","3","afternoon","2026-02-12","2026-02-24","2026-02-27T01:07:45.179Z","Mozilla/5.0 (iPhone; CPU iPhone OS 18_7 like Mac OS X) AppleWebKit/605.1.15 (KHTML, like Gecko) Mobile/15E148","408","729","480","","null","<div style=""font-size:60px;"">+</div>","null","fixation","","","","","","","","","","","",""
"html-button-response","31","52700","0.0-2.0-1.14","1021","38","post","3","afternoon","2026-02-12","2026-02-24","2026-02-27T01:07:45.179Z","Mozilla/5.0 (iPhone; CPU iPhone OS 18_7 like Mac OS X) AppleWebKit/605.1.15 (KHTML, like Gecko) Mobile/15E148","408","729","480","","2722","<div class=""prompt"" style=""font-size:24px; margin-bottom:20px;"">Which word describes you more?</div>","0","pairing","15","blissful","gloomy","PosNeg","77","16","positive","negative","61","blissful","left","true"
"html-keyboard-response","32","53502","0.0-2.0-0.15","1021","38","post","3","afternoon","2026-02-12","2026-02-24","2026-02-27T01:07:45.179Z","Mozilla/5.0 (iPhone; CPU iPhone OS 18_7 like Mac OS X) AppleWebKit/605.1.15 (KHTML, like Gecko) Mobile/15E148","408","729","480","","null","<div style=""font-size:60px;"">+</div>","null","fixation","","","","","","","","","","","",""
"html-button-response","33","55158","0.0-2.0-1.15","1021","38","post","3","afternoon","2026-02-12","2026-02-24","2026-02-27T01:07:45.179Z","Mozilla/5.0 (iPhone; CPU iPhone OS 18_7 like Mac OS X) AppleWebKit/605.1.15 (KHTML, like Gecko) Mobile/15E148","408","729","480","","1654","<div class=""prompt"" style=""font-size:24px; margin-bottom:20px;"">Which word describes you more?</div>","1","pairing","16","flawless","helper","PosPos","50","87","positive","positive","37","helper","right","true"
"html-keyboard-response","34","55960","0.0-2.0-0.16","1021","38","post","3","afternoon","2026-02-12","2026-02-24","2026-02-27T01:07:45.179Z","Mozilla/5.0 (iPhone; CPU iPhone OS 18_7 like Mac OS X) AppleWebKit/605.1.15 (KHTML, like Gecko) Mobile/15E148","408","729","480","","null","<div style=""font-size:60px;"">+</div>","null","fixation","","","","","","","","","","","",""
"html-button-response","35","57417","0.0-2.0-1.16","1021","38","post","3","afternoon","2026-02-12","2026-02-24","2026-02-27T01:07:45.179Z","Mozilla/5.0 (iPhone; CPU iPhone OS 18_7 like Mac OS X) AppleWebKit/605.1.15 (KHTML, like Gecko) Mobile/15E148","408","729","480","","1456","<div class=""prompt"" style=""font-size:24px; margin-bottom:20px;"">Which word describes you more?</div>","1","pairing","17","garbage","spectacular","PosNeg","4","78","negative","positive","74","spectacular","right","true"
"html-keyboard-response","36","58219","0.0-2.0-0.17","1021","38","post","3","afternoon","2026-02-12","2026-02-24","2026-02-27T01:07:45.179Z","Mozilla/5.0 (iPhone; CPU iPhone OS 18_7 like Mac OS X) AppleWebKit/605.1.15 (KHTML, like Gecko) Mobile/15E148","408","729","480","","null","<div style=""font-size:60px;"">+</div>","null","fixation","","","","","","","","","","","",""
"html-button-response","37","60358","0.0-2.0-1.17","1021","38","post","3","afternoon","2026-02-12","2026-02-24","2026-02-27T01:07:45.179Z","Mozilla/5.0 (iPhone; CPU iPhone OS 18_7 like Mac OS X) AppleWebKit/605.1.15 (KHTML, like Gecko) Mobile/15E148","408","729","480","","2138","<div class=""prompt"" style=""font-size:24px; margin-bottom:20px;"">Which word describes you more?</div>","1","pairing","18","alluring","authentic","PosPos","96","95","positive","positive","1","authentic","right","true"
"html-keyboard-response","38","61162","0.0-2.0-0.18","1021","38","post","3","afternoon","2026-02-12","2026-02-24","2026-02-27T01:07:45.179Z","Mozilla/5.0 (iPhone; CPU iPhone OS 18_7 like Mac OS X) AppleWebKit/605.1.15 (KHTML, like Gecko) Mobile/15E148","408","729","480","","null","<div style=""font-size:60px;"">+</div>","null","fixation","","","","","","","","","","","",""
"html-button-response","39","63909","0.0-2.0-1.18","1021","38","post","3","afternoon","2026-02-12","2026-02-24","2026-02-27T01:07:45.179Z","Mozilla/5.0 (iPhone; CPU iPhone OS 18_7 like Mac OS X) AppleWebKit/605.1.15 (KHTML, like Gecko) Mobile/15E148","408","729","480","","2745","<div class=""prompt"" style=""font-size:24px; margin-bottom:20px;"">Which word describes you more?</div>","0","pairing","19","talented","repulsive","PosNeg","94","16","positive","negative","78","talented","left","true"
"html-keyboard-response","40","64711","0.0-2.0-0.19","1021","38","post","3","afternoon","2026-02-12","2026-02-24","2026-02-27T01:07:45.179Z","Mozilla/5.0 (iPhone; CPU iPhone OS 18_7 like Mac OS X) AppleWebKit/605.1.15 (KHTML, like Gecko) Mobile/15E148","408","729","480","","null","<div style=""font-size:60px;"">+</div>","null","fixation","","","","","","","","","","","",""
"html-button-response","41","66375","0.0-2.0-1.19","1021","38","post","3","afternoon","2026-02-12","2026-02-24","2026-02-27T01:07:45.179Z","Mozilla/5.0 (iPhone; CPU iPhone OS 18_7 like Mac OS X) AppleWebKit/605.1.15 (KHTML, like Gecko) Mobile/15E148","408","729","480","","1662","<div class=""prompt"" style=""font-size:24px; margin-bottom:20px;"">Which word describes you more?</div>","0","pairing","20","heartbroken","vengeful","NegNeg","56","6","negative","negative","50","heartbroken","left","true"
"html-keyboard-response","42","67177","0.0-2.0-0.20","1021","38","post","3","afternoon","2026-02-12","2026-02-24","2026-02-27T01:07:45.179Z","Mozilla/5.0 (iPhone; CPU iPhone OS 18_7 like Mac OS X) AppleWebKit/605.1.15 (KHTML, like Gecko) Mobile/15E148","408","729","480","","null","<div style=""font-size:60px;"">+</div>","null","fixation","","","","","","","","","","","",""
"html-button-response","43","69318","0.0-2.0-1.20","1021","38","post","3","afternoon","2026-02-12","2026-02-24","2026-02-27T01:07:45.179Z","Mozilla/5.0 (iPhone; CPU iPhone OS 18_7 like Mac OS X) AppleWebKit/605.1.15 (KHTML, like Gecko) Mobile/15E148","408","729","480","","2140","<div class=""prompt"" style=""font-size:24px; margin-bottom:20px;"">Which word describes you more?</div>","0","pairing","21","rude","disgusting","NegNeg","2","13","negative","negative","11","rude","left","true"
"html-keyboard-response","44","70120","0.0-2.0-0.21","1021","38","post","3","afternoon","2026-02-12","2026-02-24","2026-02-27T01:07:45.179Z","Mozilla/5.0 (iPhone; CPU iPhone OS 18_7 like Mac OS X) AppleWebKit/605.1.15 (KHTML, like Gecko) Mobile/15E148","408","729","480","","null","<div style=""font-size:60px;"">+</div>","null","fixation","","","","","","","","","","","",""
"html-button-response","45","73043","0.0-2.0-1.21","1021","38","post","3","afternoon","2026-02-12","2026-02-24","2026-02-27T01:07:45.179Z","Mozilla/5.0 (iPhone; CPU iPhone OS 18_7 like Mac OS X) AppleWebKit/605.1.15 (KHTML, like Gecko) Mobile/15E148","408","729","480","","2921","<div class=""prompt"" style=""font-size:24px; margin-bottom:20px;"">Which word describes you more?</div>","0","pairing","22","anxious","empty","NegNeg","72","2","negative","negative","70","anxious","left","true"
"html-keyboard-response","46","73845","0.0-2.0-0.22","1021","38","post","3","afternoon","2026-02-12","2026-02-24","2026-02-27T01:07:45.179Z","Mozilla/5.0 (iPhone; CPU iPhone OS 18_7 like Mac OS X) AppleWebKit/605.1.15 (KHTML, like Gecko) Mobile/15E148","408","729","480","","null","<div style=""font-size:60px;"">+</div>","null","fixation","","","","","","","","","","","",""
"html-button-response","47","76977","0.0-2.0-1.22","1021","38","post","3","afternoon","2026-02-12","2026-02-24","2026-02-27T01:07:45.179Z","Mozilla/5.0 (iPhone; CPU iPhone OS 18_7 like Mac OS X) AppleWebKit/605.1.15 (KHTML, like Gecko) Mobile/15E148","408","729","480","","3130","<div class=""prompt"" style=""font-size:24px; margin-bottom:20px;"">Which word describes you more?</div>","0","pairing","23","delight","failure","PosNeg","92","11","positive","negative","81","delight","left","true"
"html-keyboard-response","48","77779","0.0-2.0-0.23","1021","38","post","3","afternoon","2026-02-12","2026-02-24","2026-02-27T01:07:45.179Z","Mozilla/5.0 (iPhone; CPU iPhone OS 18_7 like Mac OS X) AppleWebKit/605.1.15 (KHTML, like Gecko) Mobile/15E148","408","729","480","","null","<div style=""font-size:60px;"">+</div>","null","fixation","","","","","","","","","","","",""
"html-button-response","49","80302","0.0-2.0-1.23","1021","38","post","3","afternoon","2026-02-12","2026-02-24","2026-02-27T01:07:45.179Z","Mozilla/5.0 (iPhone; CPU iPhone OS 18_7 like Mac OS X) AppleWebKit/605.1.15 (KHTML, like Gecko) Mobile/15E148","408","729","480","","2521","<div class=""prompt"" style=""font-size:24px; margin-bottom:20px;"">Which word describes you more?</div>","0","pairing","24","proficient","clever","PosPos","95","98","positive","positive","3","proficient","left","true"
"instructions","50","81127","0.0-3.0","1021","38","post","3","afternoon","2026-02-12","2026-02-24","2026-02-27T01:07:45.179Z","Mozilla/5.0 (iPhone; CPU iPhone OS 18_7 like Mac OS X) AppleWebKit/605.1.15 (KHTML, like Gecko) Mobile/15E148","408","729","480","[{""page_index"":0,""viewing_time"":823}]","823","","","","","","","","","","","","","","",""
