"trial_type","trial_index","time_elapsed","internal_node_id","PUNS_ID","session_number","session_phase","session_day","session_slot","ema_start_date","ema_post_start_date","experiment_start","browser","screen_width","screen_height","timezone_offset","view_history","rt","stimulus","response","which_experiment_phase","trial_number","left_word","right_word","valence","left_base_rating","right_base_rating","left_valence","right_valence","abs_diff","participant_response","chosen_side","valid_response"
"pavlovia","0","1743","0.0-0.0","1071","26","pre","9","afternoon","2026-06-09","2026-06-23","2026-06-17T20:09:21.874Z","Mozilla/5.0 (iPhone; CPU iPhone OS 18_7 like Mac OS X) AppleWebKit/605.1.15 (KHTML, like Gecko) Mobile/15E148","408","733","240","","","","","","","","","","","","","","","","",""
"instructions","1","18015","0.0-1.0","1071","26","pre","9","afternoon","2026-06-09","2026-06-23","2026-06-17T20:09:21.874Z","Mozilla/5.0 (iPhone; CPU iPhone OS 18_7 like Mac OS X) AppleWebKit/605.1.15 (KHTML, like Gecko) Mobile/15E148","408","733","240","[{""page_index"":0,""viewing_time"":4518},{""page_index"":1,""viewing_time"":5666},{""page_index"":2,""viewing_time"":991},{""page_index"":3,""viewing_time"":5092}]","16268","","","","","","","","","","","","","","",""
"html-keyboard-response","2","18819","0.0-2.0-0.0","1071","26","pre","9","afternoon","2026-06-09","2026-06-23","2026-06-17T20:09:21.874Z","Mozilla/5.0 (iPhone; CPU iPhone OS 18_7 like Mac OS X) AppleWebKit/605.1.15 (KHTML, like Gecko) Mobile/15E148","408","733","240","","null","<div style=""font-size:60px;"">+</div>","null","fixation","","","","","","","","","","","",""
"html-button-response","3","20243","0.0-2.0-1.0","1071","26","pre","9","afternoon","2026-06-09","2026-06-23","2026-06-17T20:09:21.874Z","Mozilla/5.0 (iPhone; CPU iPhone OS 18_7 like Mac OS X) AppleWebKit/605.1.15 (KHTML, like Gecko) Mobile/15E148","408","733","240","","1418","<div class=""prompt"" style=""font-size:24px; margin-bottom:20px;"">Which word describes you more?</div>","1","pairing","1","blissful","capable","PosPos","9","83","positive","positive","74","capable","right","true"
"html-keyboard-response","4","21046","0.0-2.0-0.1","1071","26","pre","9","afternoon","2026-06-09","2026-06-23","2026-06-17T20:09:21.874Z","Mozilla/5.0 (iPhone; CPU iPhone OS 18_7 like Mac OS X) AppleWebKit/605.1.15 (KHTML, like Gecko) Mobile/15E148","408","733","240","","null","<div style=""font-size:60px;"">+</div>","null","fixation","","","","","","","","","","","",""
"html-button-response","5","23306","0.0-2.0-1.1","1071","26","pre","9","afternoon","2026-06-09","2026-06-23","2026-06-17T20:09:21.874Z","Mozilla/5.0 (iPhone; CPU iPhone OS 18_7 like Mac OS X) AppleWebKit/605.1.15 (KHTML, like Gecko) Mobile/15E148","408","733","240","","2259","<div class=""prompt"" style=""font-size:24px; margin-bottom:20px;"">Which word describes you more?</div>","0","pairing","2","helper","empty","PosNeg","94","4","positive","negative","90","helper","left","true"
"html-keyboard-response","6","24109","0.0-2.0-0.2","1071","26","pre","9","afternoon","2026-06-09","2026-06-23","2026-06-17T20:09:21.874Z","Mozilla/5.0 (iPhone; CPU iPhone OS 18_7 like Mac OS X) AppleWebKit/605.1.15 (KHTML, like Gecko) Mobile/15E148","408","733","240","","null","<div style=""font-size:60px;"">+</div>","null","fixation","","","","","","","","","","","",""
"html-button-response","7","25364","0.0-2.0-1.2","1071","26","pre","9","afternoon","2026-06-09","2026-06-23","2026-06-17T20:09:21.874Z","Mozilla/5.0 (iPhone; CPU iPhone OS 18_7 like Mac OS X) AppleWebKit/605.1.15 (KHTML, like Gecko) Mobile/15E148","408","733","240","","1252","<div class=""prompt"" style=""font-size:24px; margin-bottom:20px;"">Which word describes you more?</div>","1","pairing","3","unlucky","devoted","PosNeg","17","82","negative","positive","65","devoted","right","true"
"html-keyboard-response","8","26165","0.0-2.0-0.3","1071","26","pre","9","afternoon","2026-06-09","2026-06-23","2026-06-17T20:09:21.874Z","Mozilla/5.0 (iPhone; CPU iPhone OS 18_7 like Mac OS X) AppleWebKit/605.1.15 (KHTML, like Gecko) Mobile/15E148","408","733","240","","null","<div style=""font-size:60px;"">+</div>","null","fixation","","","","","","","","","","","",""
"html-button-response","9","27924","0.0-2.0-1.3","1071","26","pre","9","afternoon","2026-06-09","2026-06-23","2026-06-17T20:09:21.874Z","Mozilla/5.0 (iPhone; CPU iPhone OS 18_7 like Mac OS X) AppleWebKit/605.1.15 (KHTML, like Gecko) Mobile/15E148","408","733","240","","1757","<div class=""prompt"" style=""font-size:24px; margin-bottom:20px;"">Which word describes you more?</div>","0","pairing","4","honest","uninvited","PosNeg","82","4","positive","negative","78","honest","left","true"
"html-keyboard-response","10","28727","0.0-2.0-0.4","1071","26","pre","9","afternoon","2026-06-09","2026-06-23","2026-06-17T20:09:21.874Z","Mozilla/5.0 (iPhone; CPU iPhone OS 18_7 like Mac OS X) AppleWebKit/605.1.15 (KHTML, like Gecko) Mobile/15E148","408","733","240","","null","<div style=""font-size:60px;"">+</div>","null","fixation","","","","","","","","","","","",""
"html-button-response","11","29673","0.0-2.0-1.4","1071","26","pre","9","afternoon","2026-06-09","2026-06-23","2026-06-17T20:09:21.874Z","Mozilla/5.0 (iPhone; CPU iPhone OS 18_7 like Mac OS X) AppleWebKit/605.1.15 (KHTML, like Gecko) Mobile/15E148","408","733","240","","940","<div class=""prompt"" style=""font-size:24px; margin-bottom:20px;"">Which word describes you more?</div>","0","pairing","5","successful","heartbroken","PosNeg","53","40","positive","negative","13","successful","left","true"
"html-keyboard-response","12","30476","0.0-2.0-0.5","1071","26","pre","9","afternoon","2026-06-09","2026-06-23","2026-06-17T20:09:21.874Z","Mozilla/5.0 (iPhone; CPU iPhone OS 18_7 like Mac OS X) AppleWebKit/605.1.15 (KHTML, like Gecko) Mobile/15E148","408","733","240","","null","<div style=""font-size:60px;"">+</div>","null","fixation","","","","","","","","","","","",""
"html-button-response","13","32600","0.0-2.0-1.5","1071","26","pre","9","afternoon","2026-06-09","2026-06-23","2026-06-17T20:09:21.874Z","Mozilla/5.0 (iPhone; CPU iPhone OS 18_7 like Mac OS X) AppleWebKit/605.1.15 (KHTML, like Gecko) Mobile/15E148","408","733","240","","2122","<div class=""prompt"" style=""font-size:24px; margin-bottom:20px;"">Which word describes you more?</div>","0","pairing","6","immoral","cruel","NegNeg","0","1","negative","negative","1","immoral","left","true"
"html-keyboard-response","14","33402","0.0-2.0-0.6","1071","26","pre","9","afternoon","2026-06-09","2026-06-23","2026-06-17T20:09:21.874Z","Mozilla/5.0 (iPhone; CPU iPhone OS 18_7 like Mac OS X) AppleWebKit/605.1.15 (KHTML, like Gecko) Mobile/15E148","408","733","240","","null","<div style=""font-size:60px;"">+</div>","null","fixation","","","","","","","","","","","",""
"html-button-response","15","35058","0.0-2.0-1.6","1071","26","pre","9","afternoon","2026-06-09","2026-06-23","2026-06-17T20:09:21.874Z","Mozilla/5.0 (iPhone; CPU iPhone OS 18_7 like Mac OS X) AppleWebKit/605.1.15 (KHTML, like Gecko) Mobile/15E148","408","733","240","","1653","<div class=""prompt"" style=""font-size:24px; margin-bottom:20px;"">Which word describes you more?</div>","0","pairing","7","immoral","heartbroken","NegNeg","0","40","negative","negative","40","immoral","left","true"
"html-keyboard-response","16","35860","0.0-2.0-0.7","1071","26","pre","9","afternoon","2026-06-09","2026-06-23","2026-06-17T20:09:21.874Z","Mozilla/5.0 (iPhone; CPU iPhone OS 18_7 like Mac OS X) AppleWebKit/605.1.15 (KHTML, like Gecko) Mobile/15E148","408","733","240","","null","<div style=""font-size:60px;"">+</div>","null","fixation","","","","","","","","","","","",""
"html-button-response","17","37938","0.0-2.0-1.7","1071","26","pre","9","afternoon","2026-06-09","2026-06-23","2026-06-17T20:09:21.874Z","Mozilla/5.0 (iPhone; CPU iPhone OS 18_7 like Mac OS X) AppleWebKit/605.1.15 (KHTML, like Gecko) Mobile/15E148","408","733","240","","2077","<div class=""prompt"" style=""font-size:24px; margin-bottom:20px;"">Which word describes you more?</div>","0","pairing","8","spirited","blissful","PosPos","70","9","positive","positive","61","spirited","left","true"
"html-keyboard-response","18","38741","0.0-2.0-0.8","1071","26","pre","9","afternoon","2026-06-09","2026-06-23","2026-06-17T20:09:21.874Z","Mozilla/5.0 (iPhone; CPU iPhone OS 18_7 like Mac OS X) AppleWebKit/605.1.15 (KHTML, like Gecko) Mobile/15E148","408","733","240","","null","<div style=""font-size:60px;"">+</div>","null","fixation","","","","","","","","","","","",""
"html-button-response","19","40083","0.0-2.0-1.8","1071","26","pre","9","afternoon","2026-06-09","2026-06-23","2026-06-17T20:09:21.874Z","Mozilla/5.0 (iPhone; CPU iPhone OS 18_7 like Mac OS X) AppleWebKit/605.1.15 (KHTML, like Gecko) Mobile/15E148","408","733","240","","1340","<div class=""prompt"" style=""font-size:24px; margin-bottom:20px;"">Which word describes you more?</div>","0","pairing","9","lifeless","creep","NegNeg","1","0","negative","negative","1","lifeless","left","true"
"html-keyboard-response","20","40885","0.0-2.0-0.9","1071","26","pre","9","afternoon","2026-06-09","2026-06-23","2026-06-17T20:09:21.874Z","Mozilla/5.0 (iPhone; CPU iPhone OS 18_7 like Mac OS X) AppleWebKit/605.1.15 (KHTML, like Gecko) Mobile/15E148","408","733","240","","null","<div style=""font-size:60px;"">+</div>","null","fixation","","","","","","","","","","","",""
"html-button-response","21","42274","0.0-2.0-1.9","1071","26","pre","9","afternoon","2026-06-09","2026-06-23","2026-06-17T20:09:21.874Z","Mozilla/5.0 (iPhone; CPU iPhone OS 18_7 like Mac OS X) AppleWebKit/605.1.15 (KHTML, like Gecko) Mobile/15E148","408","733","240","","1388","<div class=""prompt"" style=""font-size:24px; margin-bottom:20px;"">Which word describes you more?</div>","1","pairing","10","sloppy","courteous","PosNeg","0","81","negative","positive","81","courteous","right","true"
"html-keyboard-response","22","43077","0.0-2.0-0.10","1071","26","pre","9","afternoon","2026-06-09","2026-06-23","2026-06-17T20:09:21.874Z","Mozilla/5.0 (iPhone; CPU iPhone OS 18_7 like Mac OS X) AppleWebKit/605.1.15 (KHTML, like Gecko) Mobile/15E148","408","733","240","","null","<div style=""font-size:60px;"">+</div>","null","fixation","","","","","","","","","","","",""
"html-button-response","23","45475","0.0-2.0-1.10","1071","26","pre","9","afternoon","2026-06-09","2026-06-23","2026-06-17T20:09:21.874Z","Mozilla/5.0 (iPhone; CPU iPhone OS 18_7 like Mac OS X) AppleWebKit/605.1.15 (KHTML, like Gecko) Mobile/15E148","408","733","240","","2397","<div class=""prompt"" style=""font-size:24px; margin-bottom:20px;"">Which word describes you more?</div>","0","pairing","11","safe","worthless","PosNeg","75","0","positive","negative","75","safe","left","true"
"html-keyboard-response","24","46278","0.0-2.0-0.11","1071","26","pre","9","afternoon","2026-06-09","2026-06-23","2026-06-17T20:09:21.874Z","Mozilla/5.0 (iPhone; CPU iPhone OS 18_7 like Mac OS X) AppleWebKit/605.1.15 (KHTML, like Gecko) Mobile/15E148","408","733","240","","null","<div style=""font-size:60px;"">+</div>","null","fixation","","","","","","","","","","","",""
"html-button-response","25","47684","0.0-2.0-1.11","1071","26","pre","9","afternoon","2026-06-09","2026-06-23","2026-06-17T20:09:21.874Z","Mozilla/5.0 (iPhone; CPU iPhone OS 18_7 like Mac OS X) AppleWebKit/605.1.15 (KHTML, like Gecko) Mobile/15E148","408","733","240","","1403","<div class=""prompt"" style=""font-size:24px; margin-bottom:20px;"">Which word describes you more?</div>","1","pairing","12","irritating","talented","PosNeg","10","18","negative","positive","8","talented","right","true"
"html-keyboard-response","26","48486","0.0-2.0-0.12","1071","26","pre","9","afternoon","2026-06-09","2026-06-23","2026-06-17T20:09:21.874Z","Mozilla/5.0 (iPhone; CPU iPhone OS 18_7 like Mac OS X) AppleWebKit/605.1.15 (KHTML, like Gecko) Mobile/15E148","408","733","240","","null","<div style=""font-size:60px;"">+</div>","null","fixation","","","","","","","","","","","",""
"html-button-response","27","51067","0.0-2.0-1.12","1071","26","pre","9","afternoon","2026-06-09","2026-06-23","2026-06-17T20:09:21.874Z","Mozilla/5.0 (iPhone; CPU iPhone OS 18_7 like Mac OS X) AppleWebKit/605.1.15 (KHTML, like Gecko) Mobile/15E148","408","733","240","","2580","<div class=""prompt"" style=""font-size:24px; margin-bottom:20px;"">Which word describes you more?</div>","0","pairing","13","entertaining","anxious","PosNeg","71","38","positive","negative","33","entertaining","left","true"
"html-keyboard-response","28","51869","0.0-2.0-0.13","1071","26","pre","9","afternoon","2026-06-09","2026-06-23","2026-06-17T20:09:21.874Z","Mozilla/5.0 (iPhone; CPU iPhone OS 18_7 like Mac OS X) AppleWebKit/605.1.15 (KHTML, like Gecko) Mobile/15E148","408","733","240","","null","<div style=""font-size:60px;"">+</div>","null","fixation","","","","","","","","","","","",""
"html-button-response","29","53282","0.0-2.0-1.13","1071","26","pre","9","afternoon","2026-06-09","2026-06-23","2026-06-17T20:09:21.874Z","Mozilla/5.0 (iPhone; CPU iPhone OS 18_7 like Mac OS X) AppleWebKit/605.1.15 (KHTML, like Gecko) Mobile/15E148","408","733","240","","1412","<div class=""prompt"" style=""font-size:24px; margin-bottom:20px;"">Which word describes you more?</div>","1","pairing","14","charming","patient","PosPos","48","87","positive","positive","39","patient","right","true"
"html-keyboard-response","30","54084","0.0-2.0-0.14","1071","26","pre","9","afternoon","2026-06-09","2026-06-23","2026-06-17T20:09:21.874Z","Mozilla/5.0 (iPhone; CPU iPhone OS 18_7 like Mac OS X) AppleWebKit/605.1.15 (KHTML, like Gecko) Mobile/15E148","408","733","240","","null","<div style=""font-size:60px;"">+</div>","null","fixation","","","","","","","","","","","",""
"html-button-response","31","55101","0.0-2.0-1.14","1071","26","pre","9","afternoon","2026-06-09","2026-06-23","2026-06-17T20:09:21.874Z","Mozilla/5.0 (iPhone; CPU iPhone OS 18_7 like Mac OS X) AppleWebKit/605.1.15 (KHTML, like Gecko) Mobile/15E148","408","733","240","","1015","<div class=""prompt"" style=""font-size:24px; margin-bottom:20px;"">Which word describes you more?</div>","0","pairing","15","pleased","bully","PosNeg","58","4","positive","negative","54","pleased","left","true"
"html-keyboard-response","32","55903","0.0-2.0-0.15","1071","26","pre","9","afternoon","2026-06-09","2026-06-23","2026-06-17T20:09:21.874Z","Mozilla/5.0 (iPhone; CPU iPhone OS 18_7 like Mac OS X) AppleWebKit/605.1.15 (KHTML, like Gecko) Mobile/15E148","408","733","240","","null","<div style=""font-size:60px;"">+</div>","null","fixation","","","","","","","","","","","",""
"html-button-response","33","56918","0.0-2.0-1.15","1071","26","pre","9","afternoon","2026-06-09","2026-06-23","2026-06-17T20:09:21.874Z","Mozilla/5.0 (iPhone; CPU iPhone OS 18_7 like Mac OS X) AppleWebKit/605.1.15 (KHTML, like Gecko) Mobile/15E148","408","733","240","","1013","<div class=""prompt"" style=""font-size:24px; margin-bottom:20px;"">Which word describes you more?</div>","0","pairing","16","stingy","parasite","NegNeg","36","2","negative","negative","34","stingy","left","true"
"html-keyboard-response","34","57720","0.0-2.0-0.16","1071","26","pre","9","afternoon","2026-06-09","2026-06-23","2026-06-17T20:09:21.874Z","Mozilla/5.0 (iPhone; CPU iPhone OS 18_7 like Mac OS X) AppleWebKit/605.1.15 (KHTML, like Gecko) Mobile/15E148","408","733","240","","null","<div style=""font-size:60px;"">+</div>","null","fixation","","","","","","","","","","","",""
"html-button-response","35","58776","0.0-2.0-1.16","1071","26","pre","9","afternoon","2026-06-09","2026-06-23","2026-06-17T20:09:21.874Z","Mozilla/5.0 (iPhone; CPU iPhone OS 18_7 like Mac OS X) AppleWebKit/605.1.15 (KHTML, like Gecko) Mobile/15E148","408","733","240","","1054","<div class=""prompt"" style=""font-size:24px; margin-bottom:20px;"">Which word describes you more?</div>","1","pairing","17","untrustworthy","awkward","NegNeg","12","37","negative","negative","25","awkward","right","true"
"html-keyboard-response","36","59578","0.0-2.0-0.17","1071","26","pre","9","afternoon","2026-06-09","2026-06-23","2026-06-17T20:09:21.874Z","Mozilla/5.0 (iPhone; CPU iPhone OS 18_7 like Mac OS X) AppleWebKit/605.1.15 (KHTML, like Gecko) Mobile/15E148","408","733","240","","null","<div style=""font-size:60px;"">+</div>","null","fixation","","","","","","","","","","","",""
"html-button-response","37","61684","0.0-2.0-1.17","1071","26","pre","9","afternoon","2026-06-09","2026-06-23","2026-06-17T20:09:21.874Z","Mozilla/5.0 (iPhone; CPU iPhone OS 18_7 like Mac OS X) AppleWebKit/605.1.15 (KHTML, like Gecko) Mobile/15E148","408","733","240","","2104","<div class=""prompt"" style=""font-size:24px; margin-bottom:20px;"">Which word describes you more?</div>","0","pairing","18","stingy","legendary","PosNeg","36","31","negative","positive","5","stingy","left","true"
"html-keyboard-response","38","62486","0.0-2.0-0.18","1071","26","pre","9","afternoon","2026-06-09","2026-06-23","2026-06-17T20:09:21.874Z","Mozilla/5.0 (iPhone; CPU iPhone OS 18_7 like Mac OS X) AppleWebKit/605.1.15 (KHTML, like Gecko) Mobile/15E148","408","733","240","","null","<div style=""font-size:60px;"">+</div>","null","fixation","","","","","","","","","","","",""
"html-button-response","39","64843","0.0-2.0-1.18","1071","26","pre","9","afternoon","2026-06-09","2026-06-23","2026-06-17T20:09:21.874Z","Mozilla/5.0 (iPhone; CPU iPhone OS 18_7 like Mac OS X) AppleWebKit/605.1.15 (KHTML, like Gecko) Mobile/15E148","408","733","240","","2355","<div class=""prompt"" style=""font-size:24px; margin-bottom:20px;"">Which word describes you more?</div>","1","pairing","19","talented","stingy","PosNeg","18","36","positive","negative","18","stingy","right","true"
"html-keyboard-response","40","65645","0.0-2.0-0.19","1071","26","pre","9","afternoon","2026-06-09","2026-06-23","2026-06-17T20:09:21.874Z","Mozilla/5.0 (iPhone; CPU iPhone OS 18_7 like Mac OS X) AppleWebKit/605.1.15 (KHTML, like Gecko) Mobile/15E148","408","733","240","","null","<div style=""font-size:60px;"">+</div>","null","fixation","","","","","","","","","","","",""
"html-button-response","41","66776","0.0-2.0-1.19","1071","26","pre","9","afternoon","2026-06-09","2026-06-23","2026-06-17T20:09:21.874Z","Mozilla/5.0 (iPhone; CPU iPhone OS 18_7 like Mac OS X) AppleWebKit/605.1.15 (KHTML, like Gecko) Mobile/15E148","408","733","240","","1130","<div class=""prompt"" style=""font-size:24px; margin-bottom:20px;"">Which word describes you more?</div>","0","pairing","20","valued","blissful","PosPos","84","9","positive","positive","75","valued","left","true"
"html-keyboard-response","42","67579","0.0-2.0-0.20","1071","26","pre","9","afternoon","2026-06-09","2026-06-23","2026-06-17T20:09:21.874Z","Mozilla/5.0 (iPhone; CPU iPhone OS 18_7 like Mac OS X) AppleWebKit/605.1.15 (KHTML, like Gecko) Mobile/15E148","408","733","240","","null","<div style=""font-size:60px;"">+</div>","null","fixation","","","","","","","","","","","",""
"html-button-response","43","69518","0.0-2.0-1.20","1071","26","pre","9","afternoon","2026-06-09","2026-06-23","2026-06-17T20:09:21.874Z","Mozilla/5.0 (iPhone; CPU iPhone OS 18_7 like Mac OS X) AppleWebKit/605.1.15 (KHTML, like Gecko) Mobile/15E148","408","733","240","","1938","<div class=""prompt"" style=""font-size:24px; margin-bottom:20px;"">Which word describes you more?</div>","0","pairing","21","friend","virtuous","PosPos","71","56","positive","positive","15","friend","left","true"
"html-keyboard-response","44","70321","0.0-2.0-0.21","1071","26","pre","9","afternoon","2026-06-09","2026-06-23","2026-06-17T20:09:21.874Z","Mozilla/5.0 (iPhone; CPU iPhone OS 18_7 like Mac OS X) AppleWebKit/605.1.15 (KHTML, like Gecko) Mobile/15E148","408","733","240","","null","<div style=""font-size:60px;"">+</div>","null","fixation","","","","","","","","","","","",""
"html-button-response","45","73011","0.0-2.0-1.21","1071","26","pre","9","afternoon","2026-06-09","2026-06-23","2026-06-17T20:09:21.874Z","Mozilla/5.0 (iPhone; CPU iPhone OS 18_7 like Mac OS X) AppleWebKit/605.1.15 (KHTML, like Gecko) Mobile/15E148","408","733","240","","2689","<div class=""prompt"" style=""font-size:24px; margin-bottom:20px;"">Which word describes you more?</div>","1","pairing","22","deceitful","energetic","PosNeg","4","58","negative","positive","54","energetic","right","true"
"html-keyboard-response","46","73813","0.0-2.0-0.22","1071","26","pre","9","afternoon","2026-06-09","2026-06-23","2026-06-17T20:09:21.874Z","Mozilla/5.0 (iPhone; CPU iPhone OS 18_7 like Mac OS X) AppleWebKit/605.1.15 (KHTML, like Gecko) Mobile/15E148","408","733","240","","null","<div style=""font-size:60px;"">+</div>","null","fixation","","","","","","","","","","","",""
"html-button-response","47","76319","0.0-2.0-1.22","1071","26","pre","9","afternoon","2026-06-09","2026-06-23","2026-06-17T20:09:21.874Z","Mozilla/5.0 (iPhone; CPU iPhone OS 18_7 like Mac OS X) AppleWebKit/605.1.15 (KHTML, like Gecko) Mobile/15E148","408","733","240","","2503","<div class=""prompt"" style=""font-size:24px; margin-bottom:20px;"">Which word describes you more?</div>","0","pairing","23","adventurous","eloquent","PosPos","58","69","positive","positive","11","adventurous","left","true"
"html-keyboard-response","48","77121","0.0-2.0-0.23","1071","26","pre","9","afternoon","2026-06-09","2026-06-23","2026-06-17T20:09:21.874Z","Mozilla/5.0 (iPhone; CPU iPhone OS 18_7 like Mac OS X) AppleWebKit/605.1.15 (KHTML, like Gecko) Mobile/15E148","408","733","240","","null","<div style=""font-size:60px;"">+</div>","null","fixation","","","","","","","","","","","",""
"html-button-response","49","79277","0.0-2.0-1.23","1071","26","pre","9","afternoon","2026-06-09","2026-06-23","2026-06-17T20:09:21.874Z","Mozilla/5.0 (iPhone; CPU iPhone OS 18_7 like Mac OS X) AppleWebKit/605.1.15 (KHTML, like Gecko) Mobile/15E148","408","733","240","","2155","<div class=""prompt"" style=""font-size:24px; margin-bottom:20px;"">Which word describes you more?</div>","1","pairing","24","anxious","unforgivable","NegNeg","38","4","negative","negative","34","unforgivable","right","true"
"instructions","50","80169","0.0-3.0","1071","26","pre","9","afternoon","2026-06-09","2026-06-23","2026-06-17T20:09:21.874Z","Mozilla/5.0 (iPhone; CPU iPhone OS 18_7 like Mac OS X) AppleWebKit/605.1.15 (KHTML, like Gecko) Mobile/15E148","408","733","240","[{""page_index"":0,""viewing_time"":889}]","889","","","","","","","","","","","","","","",""
