"trial_type","trial_index","time_elapsed","internal_node_id","PUNS_ID","session_number","session_phase","session_day","session_slot","ema_start_date","ema_post_start_date","experiment_start","browser","screen_width","screen_height","timezone_offset","view_history","rt","stimulus","response","which_experiment_phase","trial_number","left_word","right_word","valence","left_base_rating","right_base_rating","left_valence","right_valence","abs_diff","participant_response","chosen_side","valid_response"
"pavlovia","0","2061","0.0-0.0","1026","11","pre","4","afternoon","2026-02-26","2026-03-10","2026-03-01T20:49:07.388Z","Mozilla/5.0 (iPhone; CPU iPhone OS 18_7 like Mac OS X) AppleWebKit/605.1.15 (KHTML, like Gecko) Mobile/15E148","370","647","480","","","","","","","","","","","","","","","","",""
"instructions","1","4786","0.0-1.0","1026","11","pre","4","afternoon","2026-02-26","2026-03-10","2026-03-01T20:49:07.388Z","Mozilla/5.0 (iPhone; CPU iPhone OS 18_7 like Mac OS X) AppleWebKit/605.1.15 (KHTML, like Gecko) Mobile/15E148","370","647","480","[{""page_index"":0,""viewing_time"":617},{""page_index"":1,""viewing_time"":840},{""page_index"":2,""viewing_time"":750},{""page_index"":3,""viewing_time"":516}]","2724","","","","","","","","","","","","","","",""
"html-keyboard-response","2","5589","0.0-2.0-0.0","1026","11","pre","4","afternoon","2026-02-26","2026-03-10","2026-03-01T20:49:07.388Z","Mozilla/5.0 (iPhone; CPU iPhone OS 18_7 like Mac OS X) AppleWebKit/605.1.15 (KHTML, like Gecko) Mobile/15E148","370","647","480","","null","<div style=""font-size:60px;"">+</div>","null","fixation","","","","","","","","","","","",""
"html-button-response","3","7304","0.0-2.0-1.0","1026","11","pre","4","afternoon","2026-02-26","2026-03-10","2026-03-01T20:49:07.388Z","Mozilla/5.0 (iPhone; CPU iPhone OS 18_7 like Mac OS X) AppleWebKit/605.1.15 (KHTML, like Gecko) Mobile/15E148","370","647","480","","1712","<div class=""prompt"" style=""font-size:24px; margin-bottom:20px;"">Which word describes you more?</div>","1","pairing","1","untrustworthy","jealous","NegNeg","4","57","negative","negative","53","jealous","right","true"
"html-keyboard-response","4","8106","0.0-2.0-0.1","1026","11","pre","4","afternoon","2026-02-26","2026-03-10","2026-03-01T20:49:07.388Z","Mozilla/5.0 (iPhone; CPU iPhone OS 18_7 like Mac OS X) AppleWebKit/605.1.15 (KHTML, like Gecko) Mobile/15E148","370","647","480","","null","<div style=""font-size:60px;"">+</div>","null","fixation","","","","","","","","","","","",""
"html-button-response","5","9037","0.0-2.0-1.1","1026","11","pre","4","afternoon","2026-02-26","2026-03-10","2026-03-01T20:49:07.388Z","Mozilla/5.0 (iPhone; CPU iPhone OS 18_7 like Mac OS X) AppleWebKit/605.1.15 (KHTML, like Gecko) Mobile/15E148","370","647","480","","930","<div class=""prompt"" style=""font-size:24px; margin-bottom:20px;"">Which word describes you more?</div>","0","pairing","2","problematic","empty","NegNeg","36","0","negative","negative","36","problematic","left","true"
"html-keyboard-response","6","9839","0.0-2.0-0.2","1026","11","pre","4","afternoon","2026-02-26","2026-03-10","2026-03-01T20:49:07.388Z","Mozilla/5.0 (iPhone; CPU iPhone OS 18_7 like Mac OS X) AppleWebKit/605.1.15 (KHTML, like Gecko) Mobile/15E148","370","647","480","","null","<div style=""font-size:60px;"">+</div>","null","fixation","","","","","","","","","","","",""
"html-button-response","7","11220","0.0-2.0-1.2","1026","11","pre","4","afternoon","2026-02-26","2026-03-10","2026-03-01T20:49:07.388Z","Mozilla/5.0 (iPhone; CPU iPhone OS 18_7 like Mac OS X) AppleWebKit/605.1.15 (KHTML, like Gecko) Mobile/15E148","370","647","480","","1379","<div class=""prompt"" style=""font-size:24px; margin-bottom:20px;"">Which word describes you more?</div>","0","pairing","3","deceitful","hater","NegNeg","0","22","negative","negative","22","deceitful","left","true"
"html-keyboard-response","8","12022","0.0-2.0-0.3","1026","11","pre","4","afternoon","2026-02-26","2026-03-10","2026-03-01T20:49:07.388Z","Mozilla/5.0 (iPhone; CPU iPhone OS 18_7 like Mac OS X) AppleWebKit/605.1.15 (KHTML, like Gecko) Mobile/15E148","370","647","480","","null","<div style=""font-size:60px;"">+</div>","null","fixation","","","","","","","","","","","",""
"html-button-response","9","13212","0.0-2.0-1.3","1026","11","pre","4","afternoon","2026-02-26","2026-03-10","2026-03-01T20:49:07.388Z","Mozilla/5.0 (iPhone; CPU iPhone OS 18_7 like Mac OS X) AppleWebKit/605.1.15 (KHTML, like Gecko) Mobile/15E148","370","647","480","","1189","<div class=""prompt"" style=""font-size:24px; margin-bottom:20px;"">Which word describes you more?</div>","1","pairing","4","adorable","toxic","PosNeg","0","54","positive","negative","54","toxic","right","true"
"html-keyboard-response","10","14015","0.0-2.0-0.4","1026","11","pre","4","afternoon","2026-02-26","2026-03-10","2026-03-01T20:49:07.388Z","Mozilla/5.0 (iPhone; CPU iPhone OS 18_7 like Mac OS X) AppleWebKit/605.1.15 (KHTML, like Gecko) Mobile/15E148","370","647","480","","null","<div style=""font-size:60px;"">+</div>","null","fixation","","","","","","","","","","","",""
"html-button-response","11","14896","0.0-2.0-1.4","1026","11","pre","4","afternoon","2026-02-26","2026-03-10","2026-03-01T20:49:07.388Z","Mozilla/5.0 (iPhone; CPU iPhone OS 18_7 like Mac OS X) AppleWebKit/605.1.15 (KHTML, like Gecko) Mobile/15E148","370","647","480","","880","<div class=""prompt"" style=""font-size:24px; margin-bottom:20px;"">Which word describes you more?</div>","0","pairing","5","proficient","flawless","PosPos","99","5","positive","positive","94","proficient","left","true"
"html-keyboard-response","12","15698","0.0-2.0-0.5","1026","11","pre","4","afternoon","2026-02-26","2026-03-10","2026-03-01T20:49:07.388Z","Mozilla/5.0 (iPhone; CPU iPhone OS 18_7 like Mac OS X) AppleWebKit/605.1.15 (KHTML, like Gecko) Mobile/15E148","370","647","480","","null","<div style=""font-size:60px;"">+</div>","null","fixation","","","","","","","","","","","",""
"html-button-response","13","16832","0.0-2.0-1.5","1026","11","pre","4","afternoon","2026-02-26","2026-03-10","2026-03-01T20:49:07.388Z","Mozilla/5.0 (iPhone; CPU iPhone OS 18_7 like Mac OS X) AppleWebKit/605.1.15 (KHTML, like Gecko) Mobile/15E148","370","647","480","","1131","<div class=""prompt"" style=""font-size:24px; margin-bottom:20px;"">Which word describes you more?</div>","1","pairing","6","adorable","patient","PosPos","0","34","positive","positive","34","patient","right","true"
"html-keyboard-response","14","17634","0.0-2.0-0.6","1026","11","pre","4","afternoon","2026-02-26","2026-03-10","2026-03-01T20:49:07.388Z","Mozilla/5.0 (iPhone; CPU iPhone OS 18_7 like Mac OS X) AppleWebKit/605.1.15 (KHTML, like Gecko) Mobile/15E148","370","647","480","","null","<div style=""font-size:60px;"">+</div>","null","fixation","","","","","","","","","","","",""
"html-button-response","15","19090","0.0-2.0-1.6","1026","11","pre","4","afternoon","2026-02-26","2026-03-10","2026-03-01T20:49:07.388Z","Mozilla/5.0 (iPhone; CPU iPhone OS 18_7 like Mac OS X) AppleWebKit/605.1.15 (KHTML, like Gecko) Mobile/15E148","370","647","480","","1454","<div class=""prompt"" style=""font-size:24px; margin-bottom:20px;"">Which word describes you more?</div>","1","pairing","7","jerk","spectacular","PosNeg","0","53","negative","positive","53","spectacular","right","true"
"html-keyboard-response","16","19892","0.0-2.0-0.7","1026","11","pre","4","afternoon","2026-02-26","2026-03-10","2026-03-01T20:49:07.388Z","Mozilla/5.0 (iPhone; CPU iPhone OS 18_7 like Mac OS X) AppleWebKit/605.1.15 (KHTML, like Gecko) Mobile/15E148","370","647","480","","null","<div style=""font-size:60px;"">+</div>","null","fixation","","","","","","","","","","","",""
"html-button-response","17","20905","0.0-2.0-1.7","1026","11","pre","4","afternoon","2026-02-26","2026-03-10","2026-03-01T20:49:07.388Z","Mozilla/5.0 (iPhone; CPU iPhone OS 18_7 like Mac OS X) AppleWebKit/605.1.15 (KHTML, like Gecko) Mobile/15E148","370","647","480","","1011","<div class=""prompt"" style=""font-size:24px; margin-bottom:20px;"">Which word describes you more?</div>","0","pairing","8","graceful","unlucky","PosNeg","90","0","positive","negative","90","graceful","left","true"
"html-keyboard-response","18","21707","0.0-2.0-0.8","1026","11","pre","4","afternoon","2026-02-26","2026-03-10","2026-03-01T20:49:07.388Z","Mozilla/5.0 (iPhone; CPU iPhone OS 18_7 like Mac OS X) AppleWebKit/605.1.15 (KHTML, like Gecko) Mobile/15E148","370","647","480","","null","<div style=""font-size:60px;"">+</div>","null","fixation","","","","","","","","","","","",""
"html-button-response","19","22655","0.0-2.0-1.8","1026","11","pre","4","afternoon","2026-02-26","2026-03-10","2026-03-01T20:49:07.388Z","Mozilla/5.0 (iPhone; CPU iPhone OS 18_7 like Mac OS X) AppleWebKit/605.1.15 (KHTML, like Gecko) Mobile/15E148","370","647","480","","946","<div class=""prompt"" style=""font-size:24px; margin-bottom:20px;"">Which word describes you more?</div>","0","pairing","9","successful","repulsive","PosNeg","100","0","positive","negative","100","successful","left","true"
"html-keyboard-response","20","23457","0.0-2.0-0.9","1026","11","pre","4","afternoon","2026-02-26","2026-03-10","2026-03-01T20:49:07.388Z","Mozilla/5.0 (iPhone; CPU iPhone OS 18_7 like Mac OS X) AppleWebKit/605.1.15 (KHTML, like Gecko) Mobile/15E148","370","647","480","","null","<div style=""font-size:60px;"">+</div>","null","fixation","","","","","","","","","","","",""
"html-button-response","21","25906","0.0-2.0-1.9","1026","11","pre","4","afternoon","2026-02-26","2026-03-10","2026-03-01T20:49:07.388Z","Mozilla/5.0 (iPhone; CPU iPhone OS 18_7 like Mac OS X) AppleWebKit/605.1.15 (KHTML, like Gecko) Mobile/15E148","370","647","480","","2447","<div class=""prompt"" style=""font-size:24px; margin-bottom:20px;"">Which word describes you more?</div>","1","pairing","10","gloomy","violent","NegNeg","0","1","negative","negative","1","violent","right","true"
"html-keyboard-response","22","26708","0.0-2.0-0.10","1026","11","pre","4","afternoon","2026-02-26","2026-03-10","2026-03-01T20:49:07.388Z","Mozilla/5.0 (iPhone; CPU iPhone OS 18_7 like Mac OS X) AppleWebKit/605.1.15 (KHTML, like Gecko) Mobile/15E148","370","647","480","","null","<div style=""font-size:60px;"">+</div>","null","fixation","","","","","","","","","","","",""
"html-button-response","23","27931","0.0-2.0-1.10","1026","11","pre","4","afternoon","2026-02-26","2026-03-10","2026-03-01T20:49:07.388Z","Mozilla/5.0 (iPhone; CPU iPhone OS 18_7 like Mac OS X) AppleWebKit/605.1.15 (KHTML, like Gecko) Mobile/15E148","370","647","480","","1221","<div class=""prompt"" style=""font-size:24px; margin-bottom:20px;"">Which word describes you more?</div>","1","pairing","11","deceitful","credible","PosNeg","0","100","negative","positive","100","credible","right","true"
"html-keyboard-response","24","28733","0.0-2.0-0.11","1026","11","pre","4","afternoon","2026-02-26","2026-03-10","2026-03-01T20:49:07.388Z","Mozilla/5.0 (iPhone; CPU iPhone OS 18_7 like Mac OS X) AppleWebKit/605.1.15 (KHTML, like Gecko) Mobile/15E148","370","647","480","","null","<div style=""font-size:60px;"">+</div>","null","fixation","","","","","","","","","","","",""
"html-button-response","25","30188","0.0-2.0-1.11","1026","11","pre","4","afternoon","2026-02-26","2026-03-10","2026-03-01T20:49:07.388Z","Mozilla/5.0 (iPhone; CPU iPhone OS 18_7 like Mac OS X) AppleWebKit/605.1.15 (KHTML, like Gecko) Mobile/15E148","370","647","480","","1454","<div class=""prompt"" style=""font-size:24px; margin-bottom:20px;"">Which word describes you more?</div>","1","pairing","12","peaceful","honest","PosPos","87","88","positive","positive","1","honest","right","true"
"html-keyboard-response","26","30991","0.0-2.0-0.12","1026","11","pre","4","afternoon","2026-02-26","2026-03-10","2026-03-01T20:49:07.388Z","Mozilla/5.0 (iPhone; CPU iPhone OS 18_7 like Mac OS X) AppleWebKit/605.1.15 (KHTML, like Gecko) Mobile/15E148","370","647","480","","null","<div style=""font-size:60px;"">+</div>","null","fixation","","","","","","","","","","","",""
"html-button-response","27","32288","0.0-2.0-1.12","1026","11","pre","4","afternoon","2026-02-26","2026-03-10","2026-03-01T20:49:07.388Z","Mozilla/5.0 (iPhone; CPU iPhone OS 18_7 like Mac OS X) AppleWebKit/605.1.15 (KHTML, like Gecko) Mobile/15E148","370","647","480","","1296","<div class=""prompt"" style=""font-size:24px; margin-bottom:20px;"">Which word describes you more?</div>","1","pairing","13","bitter","champion","PosNeg","0","84","negative","positive","84","champion","right","true"
"html-keyboard-response","28","33090","0.0-2.0-0.13","1026","11","pre","4","afternoon","2026-02-26","2026-03-10","2026-03-01T20:49:07.388Z","Mozilla/5.0 (iPhone; CPU iPhone OS 18_7 like Mac OS X) AppleWebKit/605.1.15 (KHTML, like Gecko) Mobile/15E148","370","647","480","","null","<div style=""font-size:60px;"">+</div>","null","fixation","","","","","","","","","","","",""
"html-button-response","29","33966","0.0-2.0-1.13","1026","11","pre","4","afternoon","2026-02-26","2026-03-10","2026-03-01T20:49:07.388Z","Mozilla/5.0 (iPhone; CPU iPhone OS 18_7 like Mac OS X) AppleWebKit/605.1.15 (KHTML, like Gecko) Mobile/15E148","370","647","480","","874","<div class=""prompt"" style=""font-size:24px; margin-bottom:20px;"">Which word describes you more?</div>","0","pairing","14","visionary","delight","PosPos","100","65","positive","positive","35","visionary","left","true"
"html-keyboard-response","30","34768","0.0-2.0-0.14","1026","11","pre","4","afternoon","2026-02-26","2026-03-10","2026-03-01T20:49:07.388Z","Mozilla/5.0 (iPhone; CPU iPhone OS 18_7 like Mac OS X) AppleWebKit/605.1.15 (KHTML, like Gecko) Mobile/15E148","370","647","480","","null","<div style=""font-size:60px;"">+</div>","null","fixation","","","","","","","","","","","",""
"html-button-response","31","35764","0.0-2.0-1.14","1026","11","pre","4","afternoon","2026-02-26","2026-03-10","2026-03-01T20:49:07.388Z","Mozilla/5.0 (iPhone; CPU iPhone OS 18_7 like Mac OS X) AppleWebKit/605.1.15 (KHTML, like Gecko) Mobile/15E148","370","647","480","","994","<div class=""prompt"" style=""font-size:24px; margin-bottom:20px;"">Which word describes you more?</div>","1","pairing","15","flawless","idealistic","PosPos","5","87","positive","positive","82","idealistic","right","true"
"html-keyboard-response","32","36566","0.0-2.0-0.15","1026","11","pre","4","afternoon","2026-02-26","2026-03-10","2026-03-01T20:49:07.388Z","Mozilla/5.0 (iPhone; CPU iPhone OS 18_7 like Mac OS X) AppleWebKit/605.1.15 (KHTML, like Gecko) Mobile/15E148","370","647","480","","null","<div style=""font-size:60px;"">+</div>","null","fixation","","","","","","","","","","","",""
"html-button-response","33","37715","0.0-2.0-1.15","1026","11","pre","4","afternoon","2026-02-26","2026-03-10","2026-03-01T20:49:07.388Z","Mozilla/5.0 (iPhone; CPU iPhone OS 18_7 like Mac OS X) AppleWebKit/605.1.15 (KHTML, like Gecko) Mobile/15E148","370","647","480","","1147","<div class=""prompt"" style=""font-size:24px; margin-bottom:20px;"">Which word describes you more?</div>","0","pairing","16","asset","appealing","PosPos","100","92","positive","positive","8","asset","left","true"
"html-keyboard-response","34","38518","0.0-2.0-0.16","1026","11","pre","4","afternoon","2026-02-26","2026-03-10","2026-03-01T20:49:07.388Z","Mozilla/5.0 (iPhone; CPU iPhone OS 18_7 like Mac OS X) AppleWebKit/605.1.15 (KHTML, like Gecko) Mobile/15E148","370","647","480","","null","<div style=""font-size:60px;"">+</div>","null","fixation","","","","","","","","","","","",""
"html-button-response","35","39383","0.0-2.0-1.16","1026","11","pre","4","afternoon","2026-02-26","2026-03-10","2026-03-01T20:49:07.388Z","Mozilla/5.0 (iPhone; CPU iPhone OS 18_7 like Mac OS X) AppleWebKit/605.1.15 (KHTML, like Gecko) Mobile/15E148","370","647","480","","863","<div class=""prompt"" style=""font-size:24px; margin-bottom:20px;"">Which word describes you more?</div>","1","pairing","17","insecure","boring","NegNeg","11","0","negative","negative","11","boring","right","true"
"html-keyboard-response","36","40185","0.0-2.0-0.17","1026","11","pre","4","afternoon","2026-02-26","2026-03-10","2026-03-01T20:49:07.388Z","Mozilla/5.0 (iPhone; CPU iPhone OS 18_7 like Mac OS X) AppleWebKit/605.1.15 (KHTML, like Gecko) Mobile/15E148","370","647","480","","null","<div style=""font-size:60px;"">+</div>","null","fixation","","","","","","","","","","","",""
"html-button-response","37","41357","0.0-2.0-1.17","1026","11","pre","4","afternoon","2026-02-26","2026-03-10","2026-03-01T20:49:07.388Z","Mozilla/5.0 (iPhone; CPU iPhone OS 18_7 like Mac OS X) AppleWebKit/605.1.15 (KHTML, like Gecko) Mobile/15E148","370","647","480","","1170","<div class=""prompt"" style=""font-size:24px; margin-bottom:20px;"">Which word describes you more?</div>","1","pairing","18","awful","flawless","PosNeg","0","5","negative","positive","5","flawless","right","true"
"html-keyboard-response","38","42159","0.0-2.0-0.18","1026","11","pre","4","afternoon","2026-02-26","2026-03-10","2026-03-01T20:49:07.388Z","Mozilla/5.0 (iPhone; CPU iPhone OS 18_7 like Mac OS X) AppleWebKit/605.1.15 (KHTML, like Gecko) Mobile/15E148","370","647","480","","null","<div style=""font-size:60px;"">+</div>","null","fixation","","","","","","","","","","","",""
"html-button-response","39","42923","0.0-2.0-1.18","1026","11","pre","4","afternoon","2026-02-26","2026-03-10","2026-03-01T20:49:07.388Z","Mozilla/5.0 (iPhone; CPU iPhone OS 18_7 like Mac OS X) AppleWebKit/605.1.15 (KHTML, like Gecko) Mobile/15E148","370","647","480","","763","<div class=""prompt"" style=""font-size:24px; margin-bottom:20px;"">Which word describes you more?</div>","0","pairing","19","champion","toxic","PosNeg","84","54","positive","negative","30","champion","left","true"
"html-keyboard-response","40","43726","0.0-2.0-0.19","1026","11","pre","4","afternoon","2026-02-26","2026-03-10","2026-03-01T20:49:07.388Z","Mozilla/5.0 (iPhone; CPU iPhone OS 18_7 like Mac OS X) AppleWebKit/605.1.15 (KHTML, like Gecko) Mobile/15E148","370","647","480","","null","<div style=""font-size:60px;"">+</div>","null","fixation","","","","","","","","","","","",""
"html-button-response","41","44759","0.0-2.0-1.19","1026","11","pre","4","afternoon","2026-02-26","2026-03-10","2026-03-01T20:49:07.388Z","Mozilla/5.0 (iPhone; CPU iPhone OS 18_7 like Mac OS X) AppleWebKit/605.1.15 (KHTML, like Gecko) Mobile/15E148","370","647","480","","1032","<div class=""prompt"" style=""font-size:24px; margin-bottom:20px;"">Which word describes you more?</div>","1","pairing","20","degenerate","bitter","NegNeg","7","0","negative","negative","7","bitter","right","true"
"html-keyboard-response","42","45561","0.0-2.0-0.20","1026","11","pre","4","afternoon","2026-02-26","2026-03-10","2026-03-01T20:49:07.388Z","Mozilla/5.0 (iPhone; CPU iPhone OS 18_7 like Mac OS X) AppleWebKit/605.1.15 (KHTML, like Gecko) Mobile/15E148","370","647","480","","null","<div style=""font-size:60px;"">+</div>","null","fixation","","","","","","","","","","","",""
"html-button-response","43","46441","0.0-2.0-1.20","1026","11","pre","4","afternoon","2026-02-26","2026-03-10","2026-03-01T20:49:07.388Z","Mozilla/5.0 (iPhone; CPU iPhone OS 18_7 like Mac OS X) AppleWebKit/605.1.15 (KHTML, like Gecko) Mobile/15E148","370","647","480","","879","<div class=""prompt"" style=""font-size:24px; margin-bottom:20px;"">Which word describes you more?</div>","0","pairing","21","jealous","smiley","PosNeg","57","9","negative","positive","48","jealous","left","true"
"html-keyboard-response","44","47244","0.0-2.0-0.21","1026","11","pre","4","afternoon","2026-02-26","2026-03-10","2026-03-01T20:49:07.388Z","Mozilla/5.0 (iPhone; CPU iPhone OS 18_7 like Mac OS X) AppleWebKit/605.1.15 (KHTML, like Gecko) Mobile/15E148","370","647","480","","null","<div style=""font-size:60px;"">+</div>","null","fixation","","","","","","","","","","","",""
"html-button-response","45","48384","0.0-2.0-1.21","1026","11","pre","4","afternoon","2026-02-26","2026-03-10","2026-03-01T20:49:07.388Z","Mozilla/5.0 (iPhone; CPU iPhone OS 18_7 like Mac OS X) AppleWebKit/605.1.15 (KHTML, like Gecko) Mobile/15E148","370","647","480","","1139","<div class=""prompt"" style=""font-size:24px; margin-bottom:20px;"">Which word describes you more?</div>","0","pairing","22","gentle","toxic","PosNeg","46","54","positive","negative","8","gentle","left","true"
"html-keyboard-response","46","49187","0.0-2.0-0.22","1026","11","pre","4","afternoon","2026-02-26","2026-03-10","2026-03-01T20:49:07.388Z","Mozilla/5.0 (iPhone; CPU iPhone OS 18_7 like Mac OS X) AppleWebKit/605.1.15 (KHTML, like Gecko) Mobile/15E148","370","647","480","","null","<div style=""font-size:60px;"">+</div>","null","fixation","","","","","","","","","","","",""
"html-button-response","47","51409","0.0-2.0-1.22","1026","11","pre","4","afternoon","2026-02-26","2026-03-10","2026-03-01T20:49:07.388Z","Mozilla/5.0 (iPhone; CPU iPhone OS 18_7 like Mac OS X) AppleWebKit/605.1.15 (KHTML, like Gecko) Mobile/15E148","370","647","480","","2220","<div class=""prompt"" style=""font-size:24px; margin-bottom:20px;"">Which word describes you more?</div>","0","pairing","23","resourceful","problematic","PosNeg","100","36","positive","negative","64","resourceful","left","true"
"html-keyboard-response","48","52211","0.0-2.0-0.23","1026","11","pre","4","afternoon","2026-02-26","2026-03-10","2026-03-01T20:49:07.388Z","Mozilla/5.0 (iPhone; CPU iPhone OS 18_7 like Mac OS X) AppleWebKit/605.1.15 (KHTML, like Gecko) Mobile/15E148","370","647","480","","null","<div style=""font-size:60px;"">+</div>","null","fixation","","","","","","","","","","","",""
"html-button-response","49","53552","0.0-2.0-1.23","1026","11","pre","4","afternoon","2026-02-26","2026-03-10","2026-03-01T20:49:07.388Z","Mozilla/5.0 (iPhone; CPU iPhone OS 18_7 like Mac OS X) AppleWebKit/605.1.15 (KHTML, like Gecko) Mobile/15E148","370","647","480","","1339","<div class=""prompt"" style=""font-size:24px; margin-bottom:20px;"">Which word describes you more?</div>","1","pairing","24","shameful","adorable","PosNeg","5","0","negative","positive","5","adorable","right","true"
"instructions","50","54401","0.0-3.0","1026","11","pre","4","afternoon","2026-02-26","2026-03-10","2026-03-01T20:49:07.388Z","Mozilla/5.0 (iPhone; CPU iPhone OS 18_7 like Mac OS X) AppleWebKit/605.1.15 (KHTML, like Gecko) Mobile/15E148","370","647","480","[{""page_index"":0,""viewing_time"":847}]","848","","","","","","","","","","","","","","",""
