"trial_type","trial_index","time_elapsed","internal_node_id","PUNS_ID","session_number","session_phase","session_day","session_slot","ema_start_date","ema_post_start_date","experiment_start","browser","screen_width","screen_height","timezone_offset","view_history","rt","stimulus","response","which_experiment_phase","trial_number","left_word","right_word","valence","left_base_rating","right_base_rating","left_valence","right_valence","abs_diff","participant_response","chosen_side","valid_response"
"pavlovia","0","1298","0.0-0.0","1071","47","post","6","afternoon","2026-06-09","2026-06-23","2026-06-28T20:28:54.957Z","Mozilla/5.0 (iPhone; CPU iPhone OS 18_7 like Mac OS X) AppleWebKit/605.1.15 (KHTML, like Gecko) Mobile/15E148","408","733","240","","","","","","","","","","","","","","","","",""
"instructions","1","3770","0.0-1.0","1071","47","post","6","afternoon","2026-06-09","2026-06-23","2026-06-28T20:28:54.957Z","Mozilla/5.0 (iPhone; CPU iPhone OS 18_7 like Mac OS X) AppleWebKit/605.1.15 (KHTML, like Gecko) Mobile/15E148","408","733","240","[{""page_index"":0,""viewing_time"":884},{""page_index"":1,""viewing_time"":483},{""page_index"":2,""viewing_time"":525},{""page_index"":3,""viewing_time"":575}]","2467","","","","","","","","","","","","","","",""
"html-keyboard-response","2","4574","0.0-2.0-0.0","1071","47","post","6","afternoon","2026-06-09","2026-06-23","2026-06-28T20:28:54.957Z","Mozilla/5.0 (iPhone; CPU iPhone OS 18_7 like Mac OS X) AppleWebKit/605.1.15 (KHTML, like Gecko) Mobile/15E148","408","733","240","","null","<div style=""font-size:60px;"">+</div>","null","fixation","","","","","","","","","","","",""
"html-button-response","3","5914","0.0-2.0-1.0","1071","47","post","6","afternoon","2026-06-09","2026-06-23","2026-06-28T20:28:54.957Z","Mozilla/5.0 (iPhone; CPU iPhone OS 18_7 like Mac OS X) AppleWebKit/605.1.15 (KHTML, like Gecko) Mobile/15E148","408","733","240","","1335","<div class=""prompt"" style=""font-size:24px; margin-bottom:20px;"">Which word describes you more?</div>","0","pairing","1","helper","incompetent","PosNeg","72","9","positive","negative","63","helper","left","true"
"html-keyboard-response","4","6716","0.0-2.0-0.1","1071","47","post","6","afternoon","2026-06-09","2026-06-23","2026-06-28T20:28:54.957Z","Mozilla/5.0 (iPhone; CPU iPhone OS 18_7 like Mac OS X) AppleWebKit/605.1.15 (KHTML, like Gecko) Mobile/15E148","408","733","240","","null","<div style=""font-size:60px;"">+</div>","null","fixation","","","","","","","","","","","",""
"html-button-response","5","8176","0.0-2.0-1.1","1071","47","post","6","afternoon","2026-06-09","2026-06-23","2026-06-28T20:28:54.957Z","Mozilla/5.0 (iPhone; CPU iPhone OS 18_7 like Mac OS X) AppleWebKit/605.1.15 (KHTML, like Gecko) Mobile/15E148","408","733","240","","1458","<div class=""prompt"" style=""font-size:24px; margin-bottom:20px;"">Which word describes you more?</div>","1","pairing","2","violent","fool","NegNeg","13","3","negative","negative","10","fool","right","true"
"html-keyboard-response","6","8978","0.0-2.0-0.2","1071","47","post","6","afternoon","2026-06-09","2026-06-23","2026-06-28T20:28:54.957Z","Mozilla/5.0 (iPhone; CPU iPhone OS 18_7 like Mac OS X) AppleWebKit/605.1.15 (KHTML, like Gecko) Mobile/15E148","408","733","240","","null","<div style=""font-size:60px;"">+</div>","null","fixation","","","","","","","","","","","",""
"html-button-response","7","10403","0.0-2.0-1.2","1071","47","post","6","afternoon","2026-06-09","2026-06-23","2026-06-28T20:28:54.957Z","Mozilla/5.0 (iPhone; CPU iPhone OS 18_7 like Mac OS X) AppleWebKit/605.1.15 (KHTML, like Gecko) Mobile/15E148","408","733","240","","1424","<div class=""prompt"" style=""font-size:24px; margin-bottom:20px;"">Which word describes you more?</div>","1","pairing","3","phony","legendary","PosNeg","9","77","negative","positive","68","legendary","right","true"
"html-keyboard-response","8","11206","0.0-2.0-0.3","1071","47","post","6","afternoon","2026-06-09","2026-06-23","2026-06-28T20:28:54.957Z","Mozilla/5.0 (iPhone; CPU iPhone OS 18_7 like Mac OS X) AppleWebKit/605.1.15 (KHTML, like Gecko) Mobile/15E148","408","733","240","","null","<div style=""font-size:60px;"">+</div>","null","fixation","","","","","","","","","","","",""
"html-button-response","9","12462","0.0-2.0-1.3","1071","47","post","6","afternoon","2026-06-09","2026-06-23","2026-06-28T20:28:54.957Z","Mozilla/5.0 (iPhone; CPU iPhone OS 18_7 like Mac OS X) AppleWebKit/605.1.15 (KHTML, like Gecko) Mobile/15E148","408","733","240","","1255","<div class=""prompt"" style=""font-size:24px; margin-bottom:20px;"">Which word describes you more?</div>","1","pairing","4","garbage","arrogant","NegNeg","16","25","negative","negative","9","arrogant","right","true"
"html-keyboard-response","10","13265","0.0-2.0-0.4","1071","47","post","6","afternoon","2026-06-09","2026-06-23","2026-06-28T20:28:54.957Z","Mozilla/5.0 (iPhone; CPU iPhone OS 18_7 like Mac OS X) AppleWebKit/605.1.15 (KHTML, like Gecko) Mobile/15E148","408","733","240","","null","<div style=""font-size:60px;"">+</div>","null","fixation","","","","","","","","","","","",""
"html-button-response","11","14220","0.0-2.0-1.4","1071","47","post","6","afternoon","2026-06-09","2026-06-23","2026-06-28T20:28:54.957Z","Mozilla/5.0 (iPhone; CPU iPhone OS 18_7 like Mac OS X) AppleWebKit/605.1.15 (KHTML, like Gecko) Mobile/15E148","408","733","240","","951","<div class=""prompt"" style=""font-size:24px; margin-bottom:20px;"">Which word describes you more?</div>","0","pairing","5","goodwilled","dull","PosNeg","78","11","positive","negative","67","goodwilled","left","true"
"html-keyboard-response","12","15023","0.0-2.0-0.5","1071","47","post","6","afternoon","2026-06-09","2026-06-23","2026-06-28T20:28:54.957Z","Mozilla/5.0 (iPhone; CPU iPhone OS 18_7 like Mac OS X) AppleWebKit/605.1.15 (KHTML, like Gecko) Mobile/15E148","408","733","240","","null","<div style=""font-size:60px;"">+</div>","null","fixation","","","","","","","","","","","",""
"html-button-response","13","16031","0.0-2.0-1.5","1071","47","post","6","afternoon","2026-06-09","2026-06-23","2026-06-28T20:28:54.957Z","Mozilla/5.0 (iPhone; CPU iPhone OS 18_7 like Mac OS X) AppleWebKit/605.1.15 (KHTML, like Gecko) Mobile/15E148","408","733","240","","1006","<div class=""prompt"" style=""font-size:24px; margin-bottom:20px;"">Which word describes you more?</div>","0","pairing","6","proficient","sensible","PosPos","66","76","positive","positive","10","proficient","left","true"
"html-keyboard-response","14","16833","0.0-2.0-0.6","1071","47","post","6","afternoon","2026-06-09","2026-06-23","2026-06-28T20:28:54.957Z","Mozilla/5.0 (iPhone; CPU iPhone OS 18_7 like Mac OS X) AppleWebKit/605.1.15 (KHTML, like Gecko) Mobile/15E148","408","733","240","","null","<div style=""font-size:60px;"">+</div>","null","fixation","","","","","","","","","","","",""
"html-button-response","15","18603","0.0-2.0-1.6","1071","47","post","6","afternoon","2026-06-09","2026-06-23","2026-06-28T20:28:54.957Z","Mozilla/5.0 (iPhone; CPU iPhone OS 18_7 like Mac OS X) AppleWebKit/605.1.15 (KHTML, like Gecko) Mobile/15E148","408","733","240","","1768","<div class=""prompt"" style=""font-size:24px; margin-bottom:20px;"">Which word describes you more?</div>","1","pairing","7","unwanted","awkward","NegNeg","9","45","negative","negative","36","awkward","right","true"
"html-keyboard-response","16","19406","0.0-2.0-0.7","1071","47","post","6","afternoon","2026-06-09","2026-06-23","2026-06-28T20:28:54.957Z","Mozilla/5.0 (iPhone; CPU iPhone OS 18_7 like Mac OS X) AppleWebKit/605.1.15 (KHTML, like Gecko) Mobile/15E148","408","733","240","","null","<div style=""font-size:60px;"">+</div>","null","fixation","","","","","","","","","","","",""
"html-button-response","17","20313","0.0-2.0-1.7","1071","47","post","6","afternoon","2026-06-09","2026-06-23","2026-06-28T20:28:54.957Z","Mozilla/5.0 (iPhone; CPU iPhone OS 18_7 like Mac OS X) AppleWebKit/605.1.15 (KHTML, like Gecko) Mobile/15E148","408","733","240","","905","<div class=""prompt"" style=""font-size:24px; margin-bottom:20px;"">Which word describes you more?</div>","1","pairing","8","garbage","attractive","PosNeg","16","70","negative","positive","54","attractive","right","true"
"html-keyboard-response","18","21115","0.0-2.0-0.8","1071","47","post","6","afternoon","2026-06-09","2026-06-23","2026-06-28T20:28:54.957Z","Mozilla/5.0 (iPhone; CPU iPhone OS 18_7 like Mac OS X) AppleWebKit/605.1.15 (KHTML, like Gecko) Mobile/15E148","408","733","240","","null","<div style=""font-size:60px;"">+</div>","null","fixation","","","","","","","","","","","",""
"html-button-response","19","22138","0.0-2.0-1.8","1071","47","post","6","afternoon","2026-06-09","2026-06-23","2026-06-28T20:28:54.957Z","Mozilla/5.0 (iPhone; CPU iPhone OS 18_7 like Mac OS X) AppleWebKit/605.1.15 (KHTML, like Gecko) Mobile/15E148","408","733","240","","1022","<div class=""prompt"" style=""font-size:24px; margin-bottom:20px;"">Which word describes you more?</div>","1","pairing","9","esteemed","unique","PosPos","47","96","positive","positive","49","unique","right","true"
"html-keyboard-response","20","22941","0.0-2.0-0.9","1071","47","post","6","afternoon","2026-06-09","2026-06-23","2026-06-28T20:28:54.957Z","Mozilla/5.0 (iPhone; CPU iPhone OS 18_7 like Mac OS X) AppleWebKit/605.1.15 (KHTML, like Gecko) Mobile/15E148","408","733","240","","null","<div style=""font-size:60px;"">+</div>","null","fixation","","","","","","","","","","","",""
"html-button-response","21","23730","0.0-2.0-1.9","1071","47","post","6","afternoon","2026-06-09","2026-06-23","2026-06-28T20:28:54.957Z","Mozilla/5.0 (iPhone; CPU iPhone OS 18_7 like Mac OS X) AppleWebKit/605.1.15 (KHTML, like Gecko) Mobile/15E148","408","733","240","","787","<div class=""prompt"" style=""font-size:24px; margin-bottom:20px;"">Which word describes you more?</div>","0","pairing","10","awkward","fraud","NegNeg","45","11","negative","negative","34","awkward","left","true"
"html-keyboard-response","22","24532","0.0-2.0-0.10","1071","47","post","6","afternoon","2026-06-09","2026-06-23","2026-06-28T20:28:54.957Z","Mozilla/5.0 (iPhone; CPU iPhone OS 18_7 like Mac OS X) AppleWebKit/605.1.15 (KHTML, like Gecko) Mobile/15E148","408","733","240","","null","<div style=""font-size:60px;"">+</div>","null","fixation","","","","","","","","","","","",""
"html-button-response","23","26005","0.0-2.0-1.10","1071","47","post","6","afternoon","2026-06-09","2026-06-23","2026-06-28T20:28:54.957Z","Mozilla/5.0 (iPhone; CPU iPhone OS 18_7 like Mac OS X) AppleWebKit/605.1.15 (KHTML, like Gecko) Mobile/15E148","408","733","240","","1471","<div class=""prompt"" style=""font-size:24px; margin-bottom:20px;"">Which word describes you more?</div>","0","pairing","11","seeker","unique","PosPos","18","96","positive","positive","78","seeker","left","true"
"html-keyboard-response","24","26807","0.0-2.0-0.11","1071","47","post","6","afternoon","2026-06-09","2026-06-23","2026-06-28T20:28:54.957Z","Mozilla/5.0 (iPhone; CPU iPhone OS 18_7 like Mac OS X) AppleWebKit/605.1.15 (KHTML, like Gecko) Mobile/15E148","408","733","240","","null","<div style=""font-size:60px;"">+</div>","null","fixation","","","","","","","","","","","",""
"html-button-response","25","27579","0.0-2.0-1.11","1071","47","post","6","afternoon","2026-06-09","2026-06-23","2026-06-28T20:28:54.957Z","Mozilla/5.0 (iPhone; CPU iPhone OS 18_7 like Mac OS X) AppleWebKit/605.1.15 (KHTML, like Gecko) Mobile/15E148","408","733","240","","770","<div class=""prompt"" style=""font-size:24px; margin-bottom:20px;"">Which word describes you more?</div>","0","pairing","12","patient","adorable","PosPos","88","54","positive","positive","34","patient","left","true"
"html-keyboard-response","26","28382","0.0-2.0-0.12","1071","47","post","6","afternoon","2026-06-09","2026-06-23","2026-06-28T20:28:54.957Z","Mozilla/5.0 (iPhone; CPU iPhone OS 18_7 like Mac OS X) AppleWebKit/605.1.15 (KHTML, like Gecko) Mobile/15E148","408","733","240","","null","<div style=""font-size:60px;"">+</div>","null","fixation","","","","","","","","","","","",""
"html-button-response","27","30388","0.0-2.0-1.12","1071","47","post","6","afternoon","2026-06-09","2026-06-23","2026-06-28T20:28:54.957Z","Mozilla/5.0 (iPhone; CPU iPhone OS 18_7 like Mac OS X) AppleWebKit/605.1.15 (KHTML, like Gecko) Mobile/15E148","408","733","240","","2005","<div class=""prompt"" style=""font-size:24px; margin-bottom:20px;"">Which word describes you more?</div>","1","pairing","13","phony","anxious","NegNeg","9","61","negative","negative","52","anxious","right","true"
"html-keyboard-response","28","31190","0.0-2.0-0.13","1071","47","post","6","afternoon","2026-06-09","2026-06-23","2026-06-28T20:28:54.957Z","Mozilla/5.0 (iPhone; CPU iPhone OS 18_7 like Mac OS X) AppleWebKit/605.1.15 (KHTML, like Gecko) Mobile/15E148","408","733","240","","null","<div style=""font-size:60px;"">+</div>","null","fixation","","","","","","","","","","","",""
"html-button-response","29","32046","0.0-2.0-1.13","1071","47","post","6","afternoon","2026-06-09","2026-06-23","2026-06-28T20:28:54.957Z","Mozilla/5.0 (iPhone; CPU iPhone OS 18_7 like Mac OS X) AppleWebKit/605.1.15 (KHTML, like Gecko) Mobile/15E148","408","733","240","","855","<div class=""prompt"" style=""font-size:24px; margin-bottom:20px;"">Which word describes you more?</div>","1","pairing","14","entertaining","alluring","PosPos","80","65","positive","positive","15","alluring","right","true"
"html-keyboard-response","30","32849","0.0-2.0-0.14","1071","47","post","6","afternoon","2026-06-09","2026-06-23","2026-06-28T20:28:54.957Z","Mozilla/5.0 (iPhone; CPU iPhone OS 18_7 like Mac OS X) AppleWebKit/605.1.15 (KHTML, like Gecko) Mobile/15E148","408","733","240","","null","<div style=""font-size:60px;"">+</div>","null","fixation","","","","","","","","","","","",""
"html-button-response","31","35089","0.0-2.0-1.14","1071","47","post","6","afternoon","2026-06-09","2026-06-23","2026-06-28T20:28:54.957Z","Mozilla/5.0 (iPhone; CPU iPhone OS 18_7 like Mac OS X) AppleWebKit/605.1.15 (KHTML, like Gecko) Mobile/15E148","408","733","240","","2239","<div class=""prompt"" style=""font-size:24px; margin-bottom:20px;"">Which word describes you more?</div>","1","pairing","15","clever","flawless","PosPos","82","15","positive","positive","67","flawless","right","true"
"html-keyboard-response","32","35892","0.0-2.0-0.15","1071","47","post","6","afternoon","2026-06-09","2026-06-23","2026-06-28T20:28:54.957Z","Mozilla/5.0 (iPhone; CPU iPhone OS 18_7 like Mac OS X) AppleWebKit/605.1.15 (KHTML, like Gecko) Mobile/15E148","408","733","240","","null","<div style=""font-size:60px;"">+</div>","null","fixation","","","","","","","","","","","",""
"html-button-response","33","36673","0.0-2.0-1.15","1071","47","post","6","afternoon","2026-06-09","2026-06-23","2026-06-28T20:28:54.957Z","Mozilla/5.0 (iPhone; CPU iPhone OS 18_7 like Mac OS X) AppleWebKit/605.1.15 (KHTML, like Gecko) Mobile/15E148","408","733","240","","779","<div class=""prompt"" style=""font-size:24px; margin-bottom:20px;"">Which word describes you more?</div>","0","pairing","16","anxious","flawless","PosNeg","61","15","negative","positive","46","anxious","left","true"
"html-keyboard-response","34","37475","0.0-2.0-0.16","1071","47","post","6","afternoon","2026-06-09","2026-06-23","2026-06-28T20:28:54.957Z","Mozilla/5.0 (iPhone; CPU iPhone OS 18_7 like Mac OS X) AppleWebKit/605.1.15 (KHTML, like Gecko) Mobile/15E148","408","733","240","","null","<div style=""font-size:60px;"">+</div>","null","fixation","","","","","","","","","","","",""
"html-button-response","35","38440","0.0-2.0-1.16","1071","47","post","6","afternoon","2026-06-09","2026-06-23","2026-06-28T20:28:54.957Z","Mozilla/5.0 (iPhone; CPU iPhone OS 18_7 like Mac OS X) AppleWebKit/605.1.15 (KHTML, like Gecko) Mobile/15E148","408","733","240","","963","<div class=""prompt"" style=""font-size:24px; margin-bottom:20px;"">Which word describes you more?</div>","0","pairing","17","fun","quitter","PosNeg","76","27","positive","negative","49","fun","left","true"
"html-keyboard-response","36","39242","0.0-2.0-0.17","1071","47","post","6","afternoon","2026-06-09","2026-06-23","2026-06-28T20:28:54.957Z","Mozilla/5.0 (iPhone; CPU iPhone OS 18_7 like Mac OS X) AppleWebKit/605.1.15 (KHTML, like Gecko) Mobile/15E148","408","733","240","","null","<div style=""font-size:60px;"">+</div>","null","fixation","","","","","","","","","","","",""
"html-button-response","37","40339","0.0-2.0-1.17","1071","47","post","6","afternoon","2026-06-09","2026-06-23","2026-06-28T20:28:54.957Z","Mozilla/5.0 (iPhone; CPU iPhone OS 18_7 like Mac OS X) AppleWebKit/605.1.15 (KHTML, like Gecko) Mobile/15E148","408","733","240","","1096","<div class=""prompt"" style=""font-size:24px; margin-bottom:20px;"">Which word describes you more?</div>","1","pairing","18","quitter","resourceful","PosNeg","27","52","negative","positive","25","resourceful","right","true"
"html-keyboard-response","38","41142","0.0-2.0-0.18","1071","47","post","6","afternoon","2026-06-09","2026-06-23","2026-06-28T20:28:54.957Z","Mozilla/5.0 (iPhone; CPU iPhone OS 18_7 like Mac OS X) AppleWebKit/605.1.15 (KHTML, like Gecko) Mobile/15E148","408","733","240","","null","<div style=""font-size:60px;"">+</div>","null","fixation","","","","","","","","","","","",""
"html-button-response","39","42298","0.0-2.0-1.18","1071","47","post","6","afternoon","2026-06-09","2026-06-23","2026-06-28T20:28:54.957Z","Mozilla/5.0 (iPhone; CPU iPhone OS 18_7 like Mac OS X) AppleWebKit/605.1.15 (KHTML, like Gecko) Mobile/15E148","408","733","240","","1155","<div class=""prompt"" style=""font-size:24px; margin-bottom:20px;"">Which word describes you more?</div>","1","pairing","19","immoral","tolerant","PosNeg","20","18","negative","positive","2","tolerant","right","true"
"html-keyboard-response","40","43100","0.0-2.0-0.19","1071","47","post","6","afternoon","2026-06-09","2026-06-23","2026-06-28T20:28:54.957Z","Mozilla/5.0 (iPhone; CPU iPhone OS 18_7 like Mac OS X) AppleWebKit/605.1.15 (KHTML, like Gecko) Mobile/15E148","408","733","240","","null","<div style=""font-size:60px;"">+</div>","null","fixation","","","","","","","","","","","",""
"html-button-response","41","44007","0.0-2.0-1.19","1071","47","post","6","afternoon","2026-06-09","2026-06-23","2026-06-28T20:28:54.957Z","Mozilla/5.0 (iPhone; CPU iPhone OS 18_7 like Mac OS X) AppleWebKit/605.1.15 (KHTML, like Gecko) Mobile/15E148","408","733","240","","905","<div class=""prompt"" style=""font-size:24px; margin-bottom:20px;"">Which word describes you more?</div>","1","pairing","20","witty","awkward","PosNeg","54","45","positive","negative","9","awkward","right","true"
"html-keyboard-response","42","44808","0.0-2.0-0.20","1071","47","post","6","afternoon","2026-06-09","2026-06-23","2026-06-28T20:28:54.957Z","Mozilla/5.0 (iPhone; CPU iPhone OS 18_7 like Mac OS X) AppleWebKit/605.1.15 (KHTML, like Gecko) Mobile/15E148","408","733","240","","null","<div style=""font-size:60px;"">+</div>","null","fixation","","","","","","","","","","","",""
"html-button-response","43","46474","0.0-2.0-1.20","1071","47","post","6","afternoon","2026-06-09","2026-06-23","2026-06-28T20:28:54.957Z","Mozilla/5.0 (iPhone; CPU iPhone OS 18_7 like Mac OS X) AppleWebKit/605.1.15 (KHTML, like Gecko) Mobile/15E148","408","733","240","","1664","<div class=""prompt"" style=""font-size:24px; margin-bottom:20px;"">Which word describes you more?</div>","1","pairing","21","lifeless","shameful","NegNeg","21","11","negative","negative","10","shameful","right","true"
"html-keyboard-response","44","47276","0.0-2.0-0.21","1071","47","post","6","afternoon","2026-06-09","2026-06-23","2026-06-28T20:28:54.957Z","Mozilla/5.0 (iPhone; CPU iPhone OS 18_7 like Mac OS X) AppleWebKit/605.1.15 (KHTML, like Gecko) Mobile/15E148","408","733","240","","null","<div style=""font-size:60px;"">+</div>","null","fixation","","","","","","","","","","","",""
"html-button-response","45","49221","0.0-2.0-1.21","1071","47","post","6","afternoon","2026-06-09","2026-06-23","2026-06-28T20:28:54.957Z","Mozilla/5.0 (iPhone; CPU iPhone OS 18_7 like Mac OS X) AppleWebKit/605.1.15 (KHTML, like Gecko) Mobile/15E148","408","733","240","","1943","<div class=""prompt"" style=""font-size:24px; margin-bottom:20px;"">Which word describes you more?</div>","1","pairing","22","seeker","anxious","PosNeg","18","61","positive","negative","43","anxious","right","true"
"html-keyboard-response","46","50023","0.0-2.0-0.22","1071","47","post","6","afternoon","2026-06-09","2026-06-23","2026-06-28T20:28:54.957Z","Mozilla/5.0 (iPhone; CPU iPhone OS 18_7 like Mac OS X) AppleWebKit/605.1.15 (KHTML, like Gecko) Mobile/15E148","408","733","240","","null","<div style=""font-size:60px;"">+</div>","null","fixation","","","","","","","","","","","",""
"html-button-response","47","50924","0.0-2.0-1.22","1071","47","post","6","afternoon","2026-06-09","2026-06-23","2026-06-28T20:28:54.957Z","Mozilla/5.0 (iPhone; CPU iPhone OS 18_7 like Mac OS X) AppleWebKit/605.1.15 (KHTML, like Gecko) Mobile/15E148","408","733","240","","897","<div class=""prompt"" style=""font-size:24px; margin-bottom:20px;"">Which word describes you more?</div>","0","pairing","23","enthusiastic","disloyal","PosNeg","58","12","positive","negative","46","enthusiastic","left","true"
"html-keyboard-response","48","51726","0.0-2.0-0.23","1071","47","post","6","afternoon","2026-06-09","2026-06-23","2026-06-28T20:28:54.957Z","Mozilla/5.0 (iPhone; CPU iPhone OS 18_7 like Mac OS X) AppleWebKit/605.1.15 (KHTML, like Gecko) Mobile/15E148","408","733","240","","null","<div style=""font-size:60px;"">+</div>","null","fixation","","","","","","","","","","","",""
"html-button-response","49","54075","0.0-2.0-1.23","1071","47","post","6","afternoon","2026-06-09","2026-06-23","2026-06-28T20:28:54.957Z","Mozilla/5.0 (iPhone; CPU iPhone OS 18_7 like Mac OS X) AppleWebKit/605.1.15 (KHTML, like Gecko) Mobile/15E148","408","733","240","","2347","<div class=""prompt"" style=""font-size:24px; margin-bottom:20px;"">Which word describes you more?</div>","0","pairing","24","flawless","unlucky","PosNeg","15","29","positive","negative","14","flawless","left","true"
"instructions","50","54816","0.0-3.0","1071","47","post","6","afternoon","2026-06-09","2026-06-23","2026-06-28T20:28:54.957Z","Mozilla/5.0 (iPhone; CPU iPhone OS 18_7 like Mac OS X) AppleWebKit/605.1.15 (KHTML, like Gecko) Mobile/15E148","408","733","240","[{""page_index"":0,""viewing_time"":739}]","740","","","","","","","","","","","","","","",""
