"trial_type","trial_index","time_elapsed","internal_node_id","PUNS_ID","session_number","session_phase","session_day","session_slot","ema_start_date","ema_post_start_date","experiment_start","browser","screen_width","screen_height","timezone_offset","view_history","rt","stimulus","response","which_experiment_phase","trial_number","left_word","right_word","valence","left_base_rating","right_base_rating","left_valence","right_valence","abs_diff","participant_response","chosen_side","valid_response"
"pavlovia","0","1885","0.0-0.0","1017","35","post","2","afternoon","2026-02-16","2026-02-28","2026-03-01T20:36:36.020Z","Mozilla/5.0 (iPhone; CPU iPhone OS 18_7 like Mac OS X) AppleWebKit/605.1.15 (KHTML, like Gecko) Mobile/15E148","370","644","480","","","","","","","","","","","","","","","","",""
"instructions","1","8206","0.0-1.0","1017","35","post","2","afternoon","2026-02-16","2026-02-28","2026-03-01T20:36:36.020Z","Mozilla/5.0 (iPhone; CPU iPhone OS 18_7 like Mac OS X) AppleWebKit/605.1.15 (KHTML, like Gecko) Mobile/15E148","370","644","480","[{""page_index"":0,""viewing_time"":4007},{""page_index"":1,""viewing_time"":769},{""page_index"":2,""viewing_time"":768},{""page_index"":3,""viewing_time"":774}]","6319","","","","","","","","","","","","","","",""
"html-keyboard-response","2","9009","0.0-2.0-0.0","1017","35","post","2","afternoon","2026-02-16","2026-02-28","2026-03-01T20:36:36.020Z","Mozilla/5.0 (iPhone; CPU iPhone OS 18_7 like Mac OS X) AppleWebKit/605.1.15 (KHTML, like Gecko) Mobile/15E148","370","644","480","","null","<div style=""font-size:60px;"">+</div>","null","fixation","","","","","","","","","","","",""
"html-button-response","3","11457","0.0-2.0-1.0","1017","35","post","2","afternoon","2026-02-16","2026-02-28","2026-03-01T20:36:36.020Z","Mozilla/5.0 (iPhone; CPU iPhone OS 18_7 like Mac OS X) AppleWebKit/605.1.15 (KHTML, like Gecko) Mobile/15E148","370","644","480","","2445","<div class=""prompt"" style=""font-size:24px; margin-bottom:20px;"">Which word describes you more?</div>","1","pairing","1","anxious","negligent","NegNeg","48","0","negative","negative","48","negligent","right","true"
"html-keyboard-response","4","12259","0.0-2.0-0.1","1017","35","post","2","afternoon","2026-02-16","2026-02-28","2026-03-01T20:36:36.020Z","Mozilla/5.0 (iPhone; CPU iPhone OS 18_7 like Mac OS X) AppleWebKit/605.1.15 (KHTML, like Gecko) Mobile/15E148","370","644","480","","null","<div style=""font-size:60px;"">+</div>","null","fixation","","","","","","","","","","","",""
"html-button-response","5","13357","0.0-2.0-1.1","1017","35","post","2","afternoon","2026-02-16","2026-02-28","2026-03-01T20:36:36.020Z","Mozilla/5.0 (iPhone; CPU iPhone OS 18_7 like Mac OS X) AppleWebKit/605.1.15 (KHTML, like Gecko) Mobile/15E148","370","644","480","","1096","<div class=""prompt"" style=""font-size:24px; margin-bottom:20px;"">Which word describes you more?</div>","1","pairing","2","alluring","thoughtful","PosPos","17","100","positive","positive","83","thoughtful","right","true"
"html-keyboard-response","6","14159","0.0-2.0-0.2","1017","35","post","2","afternoon","2026-02-16","2026-02-28","2026-03-01T20:36:36.020Z","Mozilla/5.0 (iPhone; CPU iPhone OS 18_7 like Mac OS X) AppleWebKit/605.1.15 (KHTML, like Gecko) Mobile/15E148","370","644","480","","null","<div style=""font-size:60px;"">+</div>","null","fixation","","","","","","","","","","","",""
"html-button-response","7","15665","0.0-2.0-1.2","1017","35","post","2","afternoon","2026-02-16","2026-02-28","2026-03-01T20:36:36.020Z","Mozilla/5.0 (iPhone; CPU iPhone OS 18_7 like Mac OS X) AppleWebKit/605.1.15 (KHTML, like Gecko) Mobile/15E148","370","644","480","","1503","<div class=""prompt"" style=""font-size:24px; margin-bottom:20px;"">Which word describes you more?</div>","0","pairing","3","adorable","uninvited","PosNeg","28","0","positive","negative","28","adorable","left","true"
"html-keyboard-response","8","16467","0.0-2.0-0.3","1017","35","post","2","afternoon","2026-02-16","2026-02-28","2026-03-01T20:36:36.020Z","Mozilla/5.0 (iPhone; CPU iPhone OS 18_7 like Mac OS X) AppleWebKit/605.1.15 (KHTML, like Gecko) Mobile/15E148","370","644","480","","null","<div style=""font-size:60px;"">+</div>","null","fixation","","","","","","","","","","","",""
"html-button-response","9","17525","0.0-2.0-1.3","1017","35","post","2","afternoon","2026-02-16","2026-02-28","2026-03-01T20:36:36.020Z","Mozilla/5.0 (iPhone; CPU iPhone OS 18_7 like Mac OS X) AppleWebKit/605.1.15 (KHTML, like Gecko) Mobile/15E148","370","644","480","","1056","<div class=""prompt"" style=""font-size:24px; margin-bottom:20px;"">Which word describes you more?</div>","0","pairing","4","idealistic","irritating","PosNeg","100","7","positive","negative","93","idealistic","left","true"
"html-keyboard-response","10","18327","0.0-2.0-0.4","1017","35","post","2","afternoon","2026-02-16","2026-02-28","2026-03-01T20:36:36.020Z","Mozilla/5.0 (iPhone; CPU iPhone OS 18_7 like Mac OS X) AppleWebKit/605.1.15 (KHTML, like Gecko) Mobile/15E148","370","644","480","","null","<div style=""font-size:60px;"">+</div>","null","fixation","","","","","","","","","","","",""
"html-button-response","11","19550","0.0-2.0-1.4","1017","35","post","2","afternoon","2026-02-16","2026-02-28","2026-03-01T20:36:36.020Z","Mozilla/5.0 (iPhone; CPU iPhone OS 18_7 like Mac OS X) AppleWebKit/605.1.15 (KHTML, like Gecko) Mobile/15E148","370","644","480","","1220","<div class=""prompt"" style=""font-size:24px; margin-bottom:20px;"">Which word describes you more?</div>","1","pairing","5","alluring","awkward","PosNeg","17","49","positive","negative","32","awkward","right","true"
"html-keyboard-response","12","20353","0.0-2.0-0.5","1017","35","post","2","afternoon","2026-02-16","2026-02-28","2026-03-01T20:36:36.020Z","Mozilla/5.0 (iPhone; CPU iPhone OS 18_7 like Mac OS X) AppleWebKit/605.1.15 (KHTML, like Gecko) Mobile/15E148","370","644","480","","null","<div style=""font-size:60px;"">+</div>","null","fixation","","","","","","","","","","","",""
"html-button-response","13","21750","0.0-2.0-1.5","1017","35","post","2","afternoon","2026-02-16","2026-02-28","2026-03-01T20:36:36.020Z","Mozilla/5.0 (iPhone; CPU iPhone OS 18_7 like Mac OS X) AppleWebKit/605.1.15 (KHTML, like Gecko) Mobile/15E148","370","644","480","","1396","<div class=""prompt"" style=""font-size:24px; margin-bottom:20px;"">Which word describes you more?</div>","1","pairing","6","spectacular","devoted","PosPos","56","94","positive","positive","38","devoted","right","true"
"html-keyboard-response","14","22552","0.0-2.0-0.6","1017","35","post","2","afternoon","2026-02-16","2026-02-28","2026-03-01T20:36:36.020Z","Mozilla/5.0 (iPhone; CPU iPhone OS 18_7 like Mac OS X) AppleWebKit/605.1.15 (KHTML, like Gecko) Mobile/15E148","370","644","480","","null","<div style=""font-size:60px;"">+</div>","null","fixation","","","","","","","","","","","",""
"html-button-response","15","23625","0.0-2.0-1.6","1017","35","post","2","afternoon","2026-02-16","2026-02-28","2026-03-01T20:36:36.020Z","Mozilla/5.0 (iPhone; CPU iPhone OS 18_7 like Mac OS X) AppleWebKit/605.1.15 (KHTML, like Gecko) Mobile/15E148","370","644","480","","1071","<div class=""prompt"" style=""font-size:24px; margin-bottom:20px;"">Which word describes you more?</div>","0","pairing","7","wise","pest","PosNeg","88","0","positive","negative","88","wise","left","true"
"html-keyboard-response","16","24428","0.0-2.0-0.7","1017","35","post","2","afternoon","2026-02-16","2026-02-28","2026-03-01T20:36:36.020Z","Mozilla/5.0 (iPhone; CPU iPhone OS 18_7 like Mac OS X) AppleWebKit/605.1.15 (KHTML, like Gecko) Mobile/15E148","370","644","480","","null","<div style=""font-size:60px;"">+</div>","null","fixation","","","","","","","","","","","",""
"html-button-response","17","25450","0.0-2.0-1.7","1017","35","post","2","afternoon","2026-02-16","2026-02-28","2026-03-01T20:36:36.020Z","Mozilla/5.0 (iPhone; CPU iPhone OS 18_7 like Mac OS X) AppleWebKit/605.1.15 (KHTML, like Gecko) Mobile/15E148","370","644","480","","1021","<div class=""prompt"" style=""font-size:24px; margin-bottom:20px;"">Which word describes you more?</div>","1","pairing","8","unwanted","merciful","PosNeg","0","60","negative","positive","60","merciful","right","true"
"html-keyboard-response","18","26253","0.0-2.0-0.8","1017","35","post","2","afternoon","2026-02-16","2026-02-28","2026-03-01T20:36:36.020Z","Mozilla/5.0 (iPhone; CPU iPhone OS 18_7 like Mac OS X) AppleWebKit/605.1.15 (KHTML, like Gecko) Mobile/15E148","370","644","480","","null","<div style=""font-size:60px;"">+</div>","null","fixation","","","","","","","","","","","",""
"html-button-response","19","27310","0.0-2.0-1.8","1017","35","post","2","afternoon","2026-02-16","2026-02-28","2026-03-01T20:36:36.020Z","Mozilla/5.0 (iPhone; CPU iPhone OS 18_7 like Mac OS X) AppleWebKit/605.1.15 (KHTML, like Gecko) Mobile/15E148","370","644","480","","1055","<div class=""prompt"" style=""font-size:24px; margin-bottom:20px;"">Which word describes you more?</div>","0","pairing","9","idealistic","gloomy","PosNeg","100","0","positive","negative","100","idealistic","left","true"
"html-keyboard-response","20","28112","0.0-2.0-0.9","1017","35","post","2","afternoon","2026-02-16","2026-02-28","2026-03-01T20:36:36.020Z","Mozilla/5.0 (iPhone; CPU iPhone OS 18_7 like Mac OS X) AppleWebKit/605.1.15 (KHTML, like Gecko) Mobile/15E148","370","644","480","","null","<div style=""font-size:60px;"">+</div>","null","fixation","","","","","","","","","","","",""
"html-button-response","21","29802","0.0-2.0-1.9","1017","35","post","2","afternoon","2026-02-16","2026-02-28","2026-03-01T20:36:36.020Z","Mozilla/5.0 (iPhone; CPU iPhone OS 18_7 like Mac OS X) AppleWebKit/605.1.15 (KHTML, like Gecko) Mobile/15E148","370","644","480","","1689","<div class=""prompt"" style=""font-size:24px; margin-bottom:20px;"">Which word describes you more?</div>","0","pairing","10","playful","blissful","PosPos","70","36","positive","positive","34","playful","left","true"
"html-keyboard-response","22","30604","0.0-2.0-0.10","1017","35","post","2","afternoon","2026-02-16","2026-02-28","2026-03-01T20:36:36.020Z","Mozilla/5.0 (iPhone; CPU iPhone OS 18_7 like Mac OS X) AppleWebKit/605.1.15 (KHTML, like Gecko) Mobile/15E148","370","644","480","","null","<div style=""font-size:60px;"">+</div>","null","fixation","","","","","","","","","","","",""
"html-button-response","23","32085","0.0-2.0-1.10","1017","35","post","2","afternoon","2026-02-16","2026-02-28","2026-03-01T20:36:36.020Z","Mozilla/5.0 (iPhone; CPU iPhone OS 18_7 like Mac OS X) AppleWebKit/605.1.15 (KHTML, like Gecko) Mobile/15E148","370","644","480","","1480","<div class=""prompt"" style=""font-size:24px; margin-bottom:20px;"">Which word describes you more?</div>","0","pairing","11","grateful","helpless","PosNeg","100","0","positive","negative","100","grateful","left","true"
"html-keyboard-response","24","32888","0.0-2.0-0.11","1017","35","post","2","afternoon","2026-02-16","2026-02-28","2026-03-01T20:36:36.020Z","Mozilla/5.0 (iPhone; CPU iPhone OS 18_7 like Mac OS X) AppleWebKit/605.1.15 (KHTML, like Gecko) Mobile/15E148","370","644","480","","null","<div style=""font-size:60px;"">+</div>","null","fixation","","","","","","","","","","","",""
"html-button-response","25","34586","0.0-2.0-1.11","1017","35","post","2","afternoon","2026-02-16","2026-02-28","2026-03-01T20:36:36.020Z","Mozilla/5.0 (iPhone; CPU iPhone OS 18_7 like Mac OS X) AppleWebKit/605.1.15 (KHTML, like Gecko) Mobile/15E148","370","644","480","","1697","<div class=""prompt"" style=""font-size:24px; margin-bottom:20px;"">Which word describes you more?</div>","1","pairing","12","inadequate","adorable","PosNeg","33","28","negative","positive","5","adorable","right","true"
"html-keyboard-response","26","35388","0.0-2.0-0.12","1017","35","post","2","afternoon","2026-02-16","2026-02-28","2026-03-01T20:36:36.020Z","Mozilla/5.0 (iPhone; CPU iPhone OS 18_7 like Mac OS X) AppleWebKit/605.1.15 (KHTML, like Gecko) Mobile/15E148","370","644","480","","null","<div style=""font-size:60px;"">+</div>","null","fixation","","","","","","","","","","","",""
"html-button-response","27","37220","0.0-2.0-1.12","1017","35","post","2","afternoon","2026-02-16","2026-02-28","2026-03-01T20:36:36.020Z","Mozilla/5.0 (iPhone; CPU iPhone OS 18_7 like Mac OS X) AppleWebKit/605.1.15 (KHTML, like Gecko) Mobile/15E148","370","644","480","","1830","<div class=""prompt"" style=""font-size:24px; margin-bottom:20px;"">Which word describes you more?</div>","0","pairing","13","irritating","empty","NegNeg","7","0","negative","negative","7","irritating","left","true"
"html-keyboard-response","28","38022","0.0-2.0-0.13","1017","35","post","2","afternoon","2026-02-16","2026-02-28","2026-03-01T20:36:36.020Z","Mozilla/5.0 (iPhone; CPU iPhone OS 18_7 like Mac OS X) AppleWebKit/605.1.15 (KHTML, like Gecko) Mobile/15E148","370","644","480","","null","<div style=""font-size:60px;"">+</div>","null","fixation","","","","","","","","","","","",""
"html-button-response","29","39779","0.0-2.0-1.13","1017","35","post","2","afternoon","2026-02-16","2026-02-28","2026-03-01T20:36:36.020Z","Mozilla/5.0 (iPhone; CPU iPhone OS 18_7 like Mac OS X) AppleWebKit/605.1.15 (KHTML, like Gecko) Mobile/15E148","370","644","480","","1756","<div class=""prompt"" style=""font-size:24px; margin-bottom:20px;"">Which word describes you more?</div>","0","pairing","14","proficient","pleased","PosPos","83","60","positive","positive","23","proficient","left","true"
"html-keyboard-response","30","40581","0.0-2.0-0.14","1017","35","post","2","afternoon","2026-02-16","2026-02-28","2026-03-01T20:36:36.020Z","Mozilla/5.0 (iPhone; CPU iPhone OS 18_7 like Mac OS X) AppleWebKit/605.1.15 (KHTML, like Gecko) Mobile/15E148","370","644","480","","null","<div style=""font-size:60px;"">+</div>","null","fixation","","","","","","","","","","","",""
"html-button-response","31","42262","0.0-2.0-1.14","1017","35","post","2","afternoon","2026-02-16","2026-02-28","2026-03-01T20:36:36.020Z","Mozilla/5.0 (iPhone; CPU iPhone OS 18_7 like Mac OS X) AppleWebKit/605.1.15 (KHTML, like Gecko) Mobile/15E148","370","644","480","","1680","<div class=""prompt"" style=""font-size:24px; margin-bottom:20px;"">Which word describes you more?</div>","0","pairing","15","delight","adventurous","PosPos","78","83","positive","positive","5","delight","left","true"
"html-keyboard-response","32","43064","0.0-2.0-0.15","1017","35","post","2","afternoon","2026-02-16","2026-02-28","2026-03-01T20:36:36.020Z","Mozilla/5.0 (iPhone; CPU iPhone OS 18_7 like Mac OS X) AppleWebKit/605.1.15 (KHTML, like Gecko) Mobile/15E148","370","644","480","","null","<div style=""font-size:60px;"">+</div>","null","fixation","","","","","","","","","","","",""
"html-button-response","33","45154","0.0-2.0-1.15","1017","35","post","2","afternoon","2026-02-16","2026-02-28","2026-03-01T20:36:36.020Z","Mozilla/5.0 (iPhone; CPU iPhone OS 18_7 like Mac OS X) AppleWebKit/605.1.15 (KHTML, like Gecko) Mobile/15E148","370","644","480","","2089","<div class=""prompt"" style=""font-size:24px; margin-bottom:20px;"">Which word describes you more?</div>","1","pairing","16","helpless","malicious","NegNeg","0","0","negative","negative","0","malicious","right","true"
"html-keyboard-response","34","45957","0.0-2.0-0.16","1017","35","post","2","afternoon","2026-02-16","2026-02-28","2026-03-01T20:36:36.020Z","Mozilla/5.0 (iPhone; CPU iPhone OS 18_7 like Mac OS X) AppleWebKit/605.1.15 (KHTML, like Gecko) Mobile/15E148","370","644","480","","null","<div style=""font-size:60px;"">+</div>","null","fixation","","","","","","","","","","","",""
"html-button-response","35","48464","0.0-2.0-1.16","1017","35","post","2","afternoon","2026-02-16","2026-02-28","2026-03-01T20:36:36.020Z","Mozilla/5.0 (iPhone; CPU iPhone OS 18_7 like Mac OS X) AppleWebKit/605.1.15 (KHTML, like Gecko) Mobile/15E148","370","644","480","","2505","<div class=""prompt"" style=""font-size:24px; margin-bottom:20px;"">Which word describes you more?</div>","1","pairing","17","uninvited","miserable","NegNeg","0","5","negative","negative","5","miserable","right","true"
"html-keyboard-response","36","49266","0.0-2.0-0.17","1017","35","post","2","afternoon","2026-02-16","2026-02-28","2026-03-01T20:36:36.020Z","Mozilla/5.0 (iPhone; CPU iPhone OS 18_7 like Mac OS X) AppleWebKit/605.1.15 (KHTML, like Gecko) Mobile/15E148","370","644","480","","null","<div style=""font-size:60px;"">+</div>","null","fixation","","","","","","","","","","","",""
"html-button-response","37","51364","0.0-2.0-1.17","1017","35","post","2","afternoon","2026-02-16","2026-02-28","2026-03-01T20:36:36.020Z","Mozilla/5.0 (iPhone; CPU iPhone OS 18_7 like Mac OS X) AppleWebKit/605.1.15 (KHTML, like Gecko) Mobile/15E148","370","644","480","","2096","<div class=""prompt"" style=""font-size:24px; margin-bottom:20px;"">Which word describes you more?</div>","1","pairing","18","admired","alluring","PosPos","93","17","positive","positive","76","alluring","right","true"
"html-keyboard-response","38","52166","0.0-2.0-0.18","1017","35","post","2","afternoon","2026-02-16","2026-02-28","2026-03-01T20:36:36.020Z","Mozilla/5.0 (iPhone; CPU iPhone OS 18_7 like Mac OS X) AppleWebKit/605.1.15 (KHTML, like Gecko) Mobile/15E148","370","644","480","","null","<div style=""font-size:60px;"">+</div>","null","fixation","","","","","","","","","","","",""
"html-button-response","39","54347","0.0-2.0-1.18","1017","35","post","2","afternoon","2026-02-16","2026-02-28","2026-03-01T20:36:36.020Z","Mozilla/5.0 (iPhone; CPU iPhone OS 18_7 like Mac OS X) AppleWebKit/605.1.15 (KHTML, like Gecko) Mobile/15E148","370","644","480","","2181","<div class=""prompt"" style=""font-size:24px; margin-bottom:20px;"">Which word describes you more?</div>","1","pairing","19","helpless","negligent","NegNeg","0","0","negative","negative","0","negligent","right","true"
"html-keyboard-response","40","55150","0.0-2.0-0.19","1017","35","post","2","afternoon","2026-02-16","2026-02-28","2026-03-01T20:36:36.020Z","Mozilla/5.0 (iPhone; CPU iPhone OS 18_7 like Mac OS X) AppleWebKit/605.1.15 (KHTML, like Gecko) Mobile/15E148","370","644","480","","null","<div style=""font-size:60px;"">+</div>","null","fixation","","","","","","","","","","","",""
"html-button-response","41","56540","0.0-2.0-1.19","1017","35","post","2","afternoon","2026-02-16","2026-02-28","2026-03-01T20:36:36.020Z","Mozilla/5.0 (iPhone; CPU iPhone OS 18_7 like Mac OS X) AppleWebKit/605.1.15 (KHTML, like Gecko) Mobile/15E148","370","644","480","","1389","<div class=""prompt"" style=""font-size:24px; margin-bottom:20px;"">Which word describes you more?</div>","0","pairing","20","pleased","repulsive","PosNeg","60","0","positive","negative","60","pleased","left","true"
"html-keyboard-response","42","57342","0.0-2.0-0.20","1017","35","post","2","afternoon","2026-02-16","2026-02-28","2026-03-01T20:36:36.020Z","Mozilla/5.0 (iPhone; CPU iPhone OS 18_7 like Mac OS X) AppleWebKit/605.1.15 (KHTML, like Gecko) Mobile/15E148","370","644","480","","null","<div style=""font-size:60px;"">+</div>","null","fixation","","","","","","","","","","","",""
"html-button-response","43","58715","0.0-2.0-1.20","1017","35","post","2","afternoon","2026-02-16","2026-02-28","2026-03-01T20:36:36.020Z","Mozilla/5.0 (iPhone; CPU iPhone OS 18_7 like Mac OS X) AppleWebKit/605.1.15 (KHTML, like Gecko) Mobile/15E148","370","644","480","","1372","<div class=""prompt"" style=""font-size:24px; margin-bottom:20px;"">Which word describes you more?</div>","1","pairing","21","uninvited","gentle","PosNeg","0","62","negative","positive","62","gentle","right","true"
"html-keyboard-response","44","59517","0.0-2.0-0.21","1017","35","post","2","afternoon","2026-02-16","2026-02-28","2026-03-01T20:36:36.020Z","Mozilla/5.0 (iPhone; CPU iPhone OS 18_7 like Mac OS X) AppleWebKit/605.1.15 (KHTML, like Gecko) Mobile/15E148","370","644","480","","null","<div style=""font-size:60px;"">+</div>","null","fixation","","","","","","","","","","","",""
"html-button-response","45","60674","0.0-2.0-1.21","1017","35","post","2","afternoon","2026-02-16","2026-02-28","2026-03-01T20:36:36.020Z","Mozilla/5.0 (iPhone; CPU iPhone OS 18_7 like Mac OS X) AppleWebKit/605.1.15 (KHTML, like Gecko) Mobile/15E148","370","644","480","","1155","<div class=""prompt"" style=""font-size:24px; margin-bottom:20px;"">Which word describes you more?</div>","1","pairing","22","prick","wise","PosNeg","0","88","negative","positive","88","wise","right","true"
"html-keyboard-response","46","61476","0.0-2.0-0.22","1017","35","post","2","afternoon","2026-02-16","2026-02-28","2026-03-01T20:36:36.020Z","Mozilla/5.0 (iPhone; CPU iPhone OS 18_7 like Mac OS X) AppleWebKit/605.1.15 (KHTML, like Gecko) Mobile/15E148","370","644","480","","null","<div style=""font-size:60px;"">+</div>","null","fixation","","","","","","","","","","","",""
"html-button-response","47","62916","0.0-2.0-1.22","1017","35","post","2","afternoon","2026-02-16","2026-02-28","2026-03-01T20:36:36.020Z","Mozilla/5.0 (iPhone; CPU iPhone OS 18_7 like Mac OS X) AppleWebKit/605.1.15 (KHTML, like Gecko) Mobile/15E148","370","644","480","","1438","<div class=""prompt"" style=""font-size:24px; margin-bottom:20px;"">Which word describes you more?</div>","1","pairing","23","liar","blissful","PosNeg","6","36","negative","positive","30","blissful","right","true"
"html-keyboard-response","48","63718","0.0-2.0-0.23","1017","35","post","2","afternoon","2026-02-16","2026-02-28","2026-03-01T20:36:36.020Z","Mozilla/5.0 (iPhone; CPU iPhone OS 18_7 like Mac OS X) AppleWebKit/605.1.15 (KHTML, like Gecko) Mobile/15E148","370","644","480","","null","<div style=""font-size:60px;"">+</div>","null","fixation","","","","","","","","","","","",""
"html-button-response","49","65859","0.0-2.0-1.23","1017","35","post","2","afternoon","2026-02-16","2026-02-28","2026-03-01T20:36:36.020Z","Mozilla/5.0 (iPhone; CPU iPhone OS 18_7 like Mac OS X) AppleWebKit/605.1.15 (KHTML, like Gecko) Mobile/15E148","370","644","480","","2140","<div class=""prompt"" style=""font-size:24px; margin-bottom:20px;"">Which word describes you more?</div>","1","pairing","24","alone","insecure","NegNeg","0","39","negative","negative","39","insecure","right","true"
"instructions","50","66709","0.0-3.0","1017","35","post","2","afternoon","2026-02-16","2026-02-28","2026-03-01T20:36:36.020Z","Mozilla/5.0 (iPhone; CPU iPhone OS 18_7 like Mac OS X) AppleWebKit/605.1.15 (KHTML, like Gecko) Mobile/15E148","370","644","480","[{""page_index"":0,""viewing_time"":849}]","849","","","","","","","","","","","","","","",""
