"trial_type","trial_index","time_elapsed","internal_node_id","PUNS_ID","session_number","session_phase","session_day","session_slot","ema_start_date","ema_post_start_date","experiment_start","browser","screen_width","screen_height","timezone_offset","view_history","rt","stimulus","response","which_experiment_phase","trial_number","left_word","right_word","valence","left_base_rating","right_base_rating","left_valence","right_valence","abs_diff","participant_response","chosen_side","valid_response"
"pavlovia","0","1609","0.0-0.0","1088","6","pre","2","evening","2026-04-24","2026-05-07","2026-04-26T01:14:03.534Z","Mozilla/5.0 (iPhone; CPU iPhone OS 18_7 like Mac OS X) AppleWebKit/605.1.15 (KHTML, like Gecko) Mobile/15E148","358","632","240","","","","","","","","","","","","","","","","",""
"instructions","1","5574","0.0-1.0","1088","6","pre","2","evening","2026-04-24","2026-05-07","2026-04-26T01:14:03.534Z","Mozilla/5.0 (iPhone; CPU iPhone OS 18_7 like Mac OS X) AppleWebKit/605.1.15 (KHTML, like Gecko) Mobile/15E148","358","632","240","[{""page_index"":0,""viewing_time"":776},{""page_index"":1,""viewing_time"":579},{""page_index"":2,""viewing_time"":1818},{""page_index"":3,""viewing_time"":785}]","3958","","","","","","","","","","","","","","",""
"html-keyboard-response","2","6380","0.0-2.0-0.0","1088","6","pre","2","evening","2026-04-24","2026-05-07","2026-04-26T01:14:03.534Z","Mozilla/5.0 (iPhone; CPU iPhone OS 18_7 like Mac OS X) AppleWebKit/605.1.15 (KHTML, like Gecko) Mobile/15E148","358","632","240","","null","<div style=""font-size:60px;"">+</div>","null","fixation","","","","","","","","","","","",""
"html-button-response","3","8136","0.0-2.0-1.0","1088","6","pre","2","evening","2026-04-24","2026-05-07","2026-04-26T01:14:03.534Z","Mozilla/5.0 (iPhone; CPU iPhone OS 18_7 like Mac OS X) AppleWebKit/605.1.15 (KHTML, like Gecko) Mobile/15E148","358","632","240","","1750","<div class=""prompt"" style=""font-size:24px; margin-bottom:20px;"">Which word describes you more?</div>","0","pairing","1","distressed","pest","NegNeg","86","0","negative","negative","86","distressed","left","true"
"html-keyboard-response","4","8939","0.0-2.0-0.1","1088","6","pre","2","evening","2026-04-24","2026-05-07","2026-04-26T01:14:03.534Z","Mozilla/5.0 (iPhone; CPU iPhone OS 18_7 like Mac OS X) AppleWebKit/605.1.15 (KHTML, like Gecko) Mobile/15E148","358","632","240","","null","<div style=""font-size:60px;"">+</div>","null","fixation","","","","","","","","","","","",""
"html-button-response","5","9821","0.0-2.0-1.1","1088","6","pre","2","evening","2026-04-24","2026-05-07","2026-04-26T01:14:03.534Z","Mozilla/5.0 (iPhone; CPU iPhone OS 18_7 like Mac OS X) AppleWebKit/605.1.15 (KHTML, like Gecko) Mobile/15E148","358","632","240","","880","<div class=""prompt"" style=""font-size:24px; margin-bottom:20px;"">Which word describes you more?</div>","0","pairing","2","excited","inspirational","PosPos","68","89","positive","positive","21","excited","left","true"
"html-keyboard-response","6","10624","0.0-2.0-0.2","1088","6","pre","2","evening","2026-04-24","2026-05-07","2026-04-26T01:14:03.534Z","Mozilla/5.0 (iPhone; CPU iPhone OS 18_7 like Mac OS X) AppleWebKit/605.1.15 (KHTML, like Gecko) Mobile/15E148","358","632","240","","null","<div style=""font-size:60px;"">+</div>","null","fixation","","","","","","","","","","","",""
"html-button-response","7","11489","0.0-2.0-1.2","1088","6","pre","2","evening","2026-04-24","2026-05-07","2026-04-26T01:14:03.534Z","Mozilla/5.0 (iPhone; CPU iPhone OS 18_7 like Mac OS X) AppleWebKit/605.1.15 (KHTML, like Gecko) Mobile/15E148","358","632","240","","860","<div class=""prompt"" style=""font-size:24px; margin-bottom:20px;"">Which word describes you more?</div>","1","pairing","3","uninvited","witty","PosNeg","9","65","negative","positive","56","witty","right","true"
"html-keyboard-response","8","12290","0.0-2.0-0.3","1088","6","pre","2","evening","2026-04-24","2026-05-07","2026-04-26T01:14:03.534Z","Mozilla/5.0 (iPhone; CPU iPhone OS 18_7 like Mac OS X) AppleWebKit/605.1.15 (KHTML, like Gecko) Mobile/15E148","358","632","240","","null","<div style=""font-size:60px;"">+</div>","null","fixation","","","","","","","","","","","",""
"html-button-response","9","13391","0.0-2.0-1.3","1088","6","pre","2","evening","2026-04-24","2026-05-07","2026-04-26T01:14:03.534Z","Mozilla/5.0 (iPhone; CPU iPhone OS 18_7 like Mac OS X) AppleWebKit/605.1.15 (KHTML, like Gecko) Mobile/15E148","358","632","240","","1098","<div class=""prompt"" style=""font-size:24px; margin-bottom:20px;"">Which word describes you more?</div>","1","pairing","4","phony","gloomy","NegNeg","0","49","negative","negative","49","gloomy","right","true"
"html-keyboard-response","10","14193","0.0-2.0-0.4","1088","6","pre","2","evening","2026-04-24","2026-05-07","2026-04-26T01:14:03.534Z","Mozilla/5.0 (iPhone; CPU iPhone OS 18_7 like Mac OS X) AppleWebKit/605.1.15 (KHTML, like Gecko) Mobile/15E148","358","632","240","","null","<div style=""font-size:60px;"">+</div>","null","fixation","","","","","","","","","","","",""
"html-button-response","11","15139","0.0-2.0-1.4","1088","6","pre","2","evening","2026-04-24","2026-05-07","2026-04-26T01:14:03.534Z","Mozilla/5.0 (iPhone; CPU iPhone OS 18_7 like Mac OS X) AppleWebKit/605.1.15 (KHTML, like Gecko) Mobile/15E148","358","632","240","","944","<div class=""prompt"" style=""font-size:24px; margin-bottom:20px;"">Which word describes you more?</div>","0","pairing","5","spectacular","graceful","PosPos","100","50","positive","positive","50","spectacular","left","true"
"html-keyboard-response","12","15942","0.0-2.0-0.5","1088","6","pre","2","evening","2026-04-24","2026-05-07","2026-04-26T01:14:03.534Z","Mozilla/5.0 (iPhone; CPU iPhone OS 18_7 like Mac OS X) AppleWebKit/605.1.15 (KHTML, like Gecko) Mobile/15E148","358","632","240","","null","<div style=""font-size:60px;"">+</div>","null","fixation","","","","","","","","","","","",""
"html-button-response","13","16925","0.0-2.0-1.5","1088","6","pre","2","evening","2026-04-24","2026-05-07","2026-04-26T01:14:03.534Z","Mozilla/5.0 (iPhone; CPU iPhone OS 18_7 like Mac OS X) AppleWebKit/605.1.15 (KHTML, like Gecko) Mobile/15E148","358","632","240","","981","<div class=""prompt"" style=""font-size:24px; margin-bottom:20px;"">Which word describes you more?</div>","0","pairing","6","tolerant","attractive","PosPos","20","92","positive","positive","72","tolerant","left","true"
"html-keyboard-response","14","17728","0.0-2.0-0.6","1088","6","pre","2","evening","2026-04-24","2026-05-07","2026-04-26T01:14:03.534Z","Mozilla/5.0 (iPhone; CPU iPhone OS 18_7 like Mac OS X) AppleWebKit/605.1.15 (KHTML, like Gecko) Mobile/15E148","358","632","240","","null","<div style=""font-size:60px;"">+</div>","null","fixation","","","","","","","","","","","",""
"html-button-response","15","18691","0.0-2.0-1.6","1088","6","pre","2","evening","2026-04-24","2026-05-07","2026-04-26T01:14:03.534Z","Mozilla/5.0 (iPhone; CPU iPhone OS 18_7 like Mac OS X) AppleWebKit/605.1.15 (KHTML, like Gecko) Mobile/15E148","358","632","240","","959","<div class=""prompt"" style=""font-size:24px; margin-bottom:20px;"">Which word describes you more?</div>","1","pairing","7","merciful","safe","PosPos","35","87","positive","positive","52","safe","right","true"
"html-keyboard-response","16","19494","0.0-2.0-0.7","1088","6","pre","2","evening","2026-04-24","2026-05-07","2026-04-26T01:14:03.534Z","Mozilla/5.0 (iPhone; CPU iPhone OS 18_7 like Mac OS X) AppleWebKit/605.1.15 (KHTML, like Gecko) Mobile/15E148","358","632","240","","null","<div style=""font-size:60px;"">+</div>","null","fixation","","","","","","","","","","","",""
"html-button-response","17","20678","0.0-2.0-1.7","1088","6","pre","2","evening","2026-04-24","2026-05-07","2026-04-26T01:14:03.534Z","Mozilla/5.0 (iPhone; CPU iPhone OS 18_7 like Mac OS X) AppleWebKit/605.1.15 (KHTML, like Gecko) Mobile/15E148","358","632","240","","1179","<div class=""prompt"" style=""font-size:24px; margin-bottom:20px;"">Which word describes you more?</div>","0","pairing","8","tolerant","fool","PosNeg","20","4","positive","negative","16","tolerant","left","true"
"html-keyboard-response","18","21480","0.0-2.0-0.8","1088","6","pre","2","evening","2026-04-24","2026-05-07","2026-04-26T01:14:03.534Z","Mozilla/5.0 (iPhone; CPU iPhone OS 18_7 like Mac OS X) AppleWebKit/605.1.15 (KHTML, like Gecko) Mobile/15E148","358","632","240","","null","<div style=""font-size:60px;"">+</div>","null","fixation","","","","","","","","","","","",""
"html-button-response","19","22427","0.0-2.0-1.8","1088","6","pre","2","evening","2026-04-24","2026-05-07","2026-04-26T01:14:03.534Z","Mozilla/5.0 (iPhone; CPU iPhone OS 18_7 like Mac OS X) AppleWebKit/605.1.15 (KHTML, like Gecko) Mobile/15E148","358","632","240","","945","<div class=""prompt"" style=""font-size:24px; margin-bottom:20px;"">Which word describes you more?</div>","1","pairing","9","sadistic","helper","PosNeg","1","93","negative","positive","92","helper","right","true"
"html-keyboard-response","20","23229","0.0-2.0-0.9","1088","6","pre","2","evening","2026-04-24","2026-05-07","2026-04-26T01:14:03.534Z","Mozilla/5.0 (iPhone; CPU iPhone OS 18_7 like Mac OS X) AppleWebKit/605.1.15 (KHTML, like Gecko) Mobile/15E148","358","632","240","","null","<div style=""font-size:60px;"">+</div>","null","fixation","","","","","","","","","","","",""
"html-button-response","21","24241","0.0-2.0-1.9","1088","6","pre","2","evening","2026-04-24","2026-05-07","2026-04-26T01:14:03.534Z","Mozilla/5.0 (iPhone; CPU iPhone OS 18_7 like Mac OS X) AppleWebKit/605.1.15 (KHTML, like Gecko) Mobile/15E148","358","632","240","","1009","<div class=""prompt"" style=""font-size:24px; margin-bottom:20px;"">Which word describes you more?</div>","0","pairing","10","energetic","adorable","PosPos","86","64","positive","positive","22","energetic","left","true"
"html-keyboard-response","22","25044","0.0-2.0-0.10","1088","6","pre","2","evening","2026-04-24","2026-05-07","2026-04-26T01:14:03.534Z","Mozilla/5.0 (iPhone; CPU iPhone OS 18_7 like Mac OS X) AppleWebKit/605.1.15 (KHTML, like Gecko) Mobile/15E148","358","632","240","","null","<div style=""font-size:60px;"">+</div>","null","fixation","","","","","","","","","","","",""
"html-button-response","23","26548","0.0-2.0-1.10","1088","6","pre","2","evening","2026-04-24","2026-05-07","2026-04-26T01:14:03.534Z","Mozilla/5.0 (iPhone; CPU iPhone OS 18_7 like Mac OS X) AppleWebKit/605.1.15 (KHTML, like Gecko) Mobile/15E148","358","632","240","","1501","<div class=""prompt"" style=""font-size:24px; margin-bottom:20px;"">Which word describes you more?</div>","1","pairing","11","empty","distressed","NegNeg","11","86","negative","negative","75","distressed","right","true"
"html-keyboard-response","24","27351","0.0-2.0-0.11","1088","6","pre","2","evening","2026-04-24","2026-05-07","2026-04-26T01:14:03.534Z","Mozilla/5.0 (iPhone; CPU iPhone OS 18_7 like Mac OS X) AppleWebKit/605.1.15 (KHTML, like Gecko) Mobile/15E148","358","632","240","","null","<div style=""font-size:60px;"">+</div>","null","fixation","","","","","","","","","","","",""
"html-button-response","25","28481","0.0-2.0-1.11","1088","6","pre","2","evening","2026-04-24","2026-05-07","2026-04-26T01:14:03.534Z","Mozilla/5.0 (iPhone; CPU iPhone OS 18_7 like Mac OS X) AppleWebKit/605.1.15 (KHTML, like Gecko) Mobile/15E148","358","632","240","","1127","<div class=""prompt"" style=""font-size:24px; margin-bottom:20px;"">Which word describes you more?</div>","0","pairing","12","spectacular","garbage","PosNeg","100","0","positive","negative","100","spectacular","left","true"
"html-keyboard-response","26","29284","0.0-2.0-0.12","1088","6","pre","2","evening","2026-04-24","2026-05-07","2026-04-26T01:14:03.534Z","Mozilla/5.0 (iPhone; CPU iPhone OS 18_7 like Mac OS X) AppleWebKit/605.1.15 (KHTML, like Gecko) Mobile/15E148","358","632","240","","null","<div style=""font-size:60px;"">+</div>","null","fixation","","","","","","","","","","","",""
"html-button-response","27","30814","0.0-2.0-1.12","1088","6","pre","2","evening","2026-04-24","2026-05-07","2026-04-26T01:14:03.534Z","Mozilla/5.0 (iPhone; CPU iPhone OS 18_7 like Mac OS X) AppleWebKit/605.1.15 (KHTML, like Gecko) Mobile/15E148","358","632","240","","1528","<div class=""prompt"" style=""font-size:24px; margin-bottom:20px;"">Which word describes you more?</div>","0","pairing","13","inadequate","irritating","NegNeg","7","0","negative","negative","7","inadequate","left","true"
"html-keyboard-response","28","31616","0.0-2.0-0.13","1088","6","pre","2","evening","2026-04-24","2026-05-07","2026-04-26T01:14:03.534Z","Mozilla/5.0 (iPhone; CPU iPhone OS 18_7 like Mac OS X) AppleWebKit/605.1.15 (KHTML, like Gecko) Mobile/15E148","358","632","240","","null","<div style=""font-size:60px;"">+</div>","null","fixation","","","","","","","","","","","",""
"html-button-response","29","32951","0.0-2.0-1.13","1088","6","pre","2","evening","2026-04-24","2026-05-07","2026-04-26T01:14:03.534Z","Mozilla/5.0 (iPhone; CPU iPhone OS 18_7 like Mac OS X) AppleWebKit/605.1.15 (KHTML, like Gecko) Mobile/15E148","358","632","240","","1327","<div class=""prompt"" style=""font-size:24px; margin-bottom:20px;"">Which word describes you more?</div>","1","pairing","14","champion","hesitant","PosNeg","15","84","positive","negative","69","hesitant","right","true"
"html-keyboard-response","30","33755","0.0-2.0-0.14","1088","6","pre","2","evening","2026-04-24","2026-05-07","2026-04-26T01:14:03.534Z","Mozilla/5.0 (iPhone; CPU iPhone OS 18_7 like Mac OS X) AppleWebKit/605.1.15 (KHTML, like Gecko) Mobile/15E148","358","632","240","","null","<div style=""font-size:60px;"">+</div>","null","fixation","","","","","","","","","","","",""
"html-button-response","31","34733","0.0-2.0-1.14","1088","6","pre","2","evening","2026-04-24","2026-05-07","2026-04-26T01:14:03.534Z","Mozilla/5.0 (iPhone; CPU iPhone OS 18_7 like Mac OS X) AppleWebKit/605.1.15 (KHTML, like Gecko) Mobile/15E148","358","632","240","","976","<div class=""prompt"" style=""font-size:24px; margin-bottom:20px;"">Which word describes you more?</div>","0","pairing","15","heartbroken","eloquent","PosNeg","48","77","negative","positive","29","heartbroken","left","true"
"html-keyboard-response","32","35536","0.0-2.0-0.15","1088","6","pre","2","evening","2026-04-24","2026-05-07","2026-04-26T01:14:03.534Z","Mozilla/5.0 (iPhone; CPU iPhone OS 18_7 like Mac OS X) AppleWebKit/605.1.15 (KHTML, like Gecko) Mobile/15E148","358","632","240","","null","<div style=""font-size:60px;"">+</div>","null","fixation","","","","","","","","","","","",""
"html-button-response","33","37668","0.0-2.0-1.15","1088","6","pre","2","evening","2026-04-24","2026-05-07","2026-04-26T01:14:03.534Z","Mozilla/5.0 (iPhone; CPU iPhone OS 18_7 like Mac OS X) AppleWebKit/605.1.15 (KHTML, like Gecko) Mobile/15E148","358","632","240","","2129","<div class=""prompt"" style=""font-size:24px; margin-bottom:20px;"">Which word describes you more?</div>","1","pairing","16","graceful","alone","PosNeg","50","7","positive","negative","43","alone","right","true"
"html-keyboard-response","34","38471","0.0-2.0-0.16","1088","6","pre","2","evening","2026-04-24","2026-05-07","2026-04-26T01:14:03.534Z","Mozilla/5.0 (iPhone; CPU iPhone OS 18_7 like Mac OS X) AppleWebKit/605.1.15 (KHTML, like Gecko) Mobile/15E148","358","632","240","","null","<div style=""font-size:60px;"">+</div>","null","fixation","","","","","","","","","","","",""
"html-button-response","35","39883","0.0-2.0-1.16","1088","6","pre","2","evening","2026-04-24","2026-05-07","2026-04-26T01:14:03.534Z","Mozilla/5.0 (iPhone; CPU iPhone OS 18_7 like Mac OS X) AppleWebKit/605.1.15 (KHTML, like Gecko) Mobile/15E148","358","632","240","","1409","<div class=""prompt"" style=""font-size:24px; margin-bottom:20px;"">Which word describes you more?</div>","0","pairing","17","sophisticated","champion","PosPos","86","15","positive","positive","71","sophisticated","left","true"
"html-keyboard-response","36","40686","0.0-2.0-0.17","1088","6","pre","2","evening","2026-04-24","2026-05-07","2026-04-26T01:14:03.534Z","Mozilla/5.0 (iPhone; CPU iPhone OS 18_7 like Mac OS X) AppleWebKit/605.1.15 (KHTML, like Gecko) Mobile/15E148","358","632","240","","null","<div style=""font-size:60px;"">+</div>","null","fixation","","","","","","","","","","","",""
"html-button-response","37","41771","0.0-2.0-1.17","1088","6","pre","2","evening","2026-04-24","2026-05-07","2026-04-26T01:14:03.534Z","Mozilla/5.0 (iPhone; CPU iPhone OS 18_7 like Mac OS X) AppleWebKit/605.1.15 (KHTML, like Gecko) Mobile/15E148","358","632","240","","1083","<div class=""prompt"" style=""font-size:24px; margin-bottom:20px;"">Which word describes you more?</div>","0","pairing","18","hesitant","expert","PosNeg","84","7","negative","positive","77","hesitant","left","true"
"html-keyboard-response","38","42574","0.0-2.0-0.18","1088","6","pre","2","evening","2026-04-24","2026-05-07","2026-04-26T01:14:03.534Z","Mozilla/5.0 (iPhone; CPU iPhone OS 18_7 like Mac OS X) AppleWebKit/605.1.15 (KHTML, like Gecko) Mobile/15E148","358","632","240","","null","<div style=""font-size:60px;"">+</div>","null","fixation","","","","","","","","","","","",""
"html-button-response","39","43489","0.0-2.0-1.18","1088","6","pre","2","evening","2026-04-24","2026-05-07","2026-04-26T01:14:03.534Z","Mozilla/5.0 (iPhone; CPU iPhone OS 18_7 like Mac OS X) AppleWebKit/605.1.15 (KHTML, like Gecko) Mobile/15E148","358","632","240","","913","<div class=""prompt"" style=""font-size:24px; margin-bottom:20px;"">Which word describes you more?</div>","0","pairing","19","distressed","legendary","PosNeg","86","50","negative","positive","36","distressed","left","true"
"html-keyboard-response","40","44291","0.0-2.0-0.19","1088","6","pre","2","evening","2026-04-24","2026-05-07","2026-04-26T01:14:03.534Z","Mozilla/5.0 (iPhone; CPU iPhone OS 18_7 like Mac OS X) AppleWebKit/605.1.15 (KHTML, like Gecko) Mobile/15E148","358","632","240","","null","<div style=""font-size:60px;"">+</div>","null","fixation","","","","","","","","","","","",""
"html-button-response","41","45569","0.0-2.0-1.19","1088","6","pre","2","evening","2026-04-24","2026-05-07","2026-04-26T01:14:03.534Z","Mozilla/5.0 (iPhone; CPU iPhone OS 18_7 like Mac OS X) AppleWebKit/605.1.15 (KHTML, like Gecko) Mobile/15E148","358","632","240","","1275","<div class=""prompt"" style=""font-size:24px; margin-bottom:20px;"">Which word describes you more?</div>","1","pairing","20","merciful","heartbroken","PosNeg","35","48","positive","negative","13","heartbroken","right","true"
"html-keyboard-response","42","46371","0.0-2.0-0.20","1088","6","pre","2","evening","2026-04-24","2026-05-07","2026-04-26T01:14:03.534Z","Mozilla/5.0 (iPhone; CPU iPhone OS 18_7 like Mac OS X) AppleWebKit/605.1.15 (KHTML, like Gecko) Mobile/15E148","358","632","240","","null","<div style=""font-size:60px;"">+</div>","null","fixation","","","","","","","","","","","",""
"html-button-response","43","47640","0.0-2.0-1.20","1088","6","pre","2","evening","2026-04-24","2026-05-07","2026-04-26T01:14:03.534Z","Mozilla/5.0 (iPhone; CPU iPhone OS 18_7 like Mac OS X) AppleWebKit/605.1.15 (KHTML, like Gecko) Mobile/15E148","358","632","240","","1266","<div class=""prompt"" style=""font-size:24px; margin-bottom:20px;"">Which word describes you more?</div>","1","pairing","21","decisive","hesitant","PosNeg","49","84","positive","negative","35","hesitant","right","true"
"html-keyboard-response","44","48442","0.0-2.0-0.21","1088","6","pre","2","evening","2026-04-24","2026-05-07","2026-04-26T01:14:03.534Z","Mozilla/5.0 (iPhone; CPU iPhone OS 18_7 like Mac OS X) AppleWebKit/605.1.15 (KHTML, like Gecko) Mobile/15E148","358","632","240","","null","<div style=""font-size:60px;"">+</div>","null","fixation","","","","","","","","","","","",""
"html-button-response","45","52090","0.0-2.0-1.21","1088","6","pre","2","evening","2026-04-24","2026-05-07","2026-04-26T01:14:03.534Z","Mozilla/5.0 (iPhone; CPU iPhone OS 18_7 like Mac OS X) AppleWebKit/605.1.15 (KHTML, like Gecko) Mobile/15E148","358","632","240","","3645","<div class=""prompt"" style=""font-size:24px; margin-bottom:20px;"">Which word describes you more?</div>","1","pairing","22","outcast","sloppy","NegNeg","60","0","negative","negative","60","sloppy","right","true"
"html-keyboard-response","46","52892","0.0-2.0-0.22","1088","6","pre","2","evening","2026-04-24","2026-05-07","2026-04-26T01:14:03.534Z","Mozilla/5.0 (iPhone; CPU iPhone OS 18_7 like Mac OS X) AppleWebKit/605.1.15 (KHTML, like Gecko) Mobile/15E148","358","632","240","","null","<div style=""font-size:60px;"">+</div>","null","fixation","","","","","","","","","","","",""
"html-button-response","47","56239","0.0-2.0-1.22","1088","6","pre","2","evening","2026-04-24","2026-05-07","2026-04-26T01:14:03.534Z","Mozilla/5.0 (iPhone; CPU iPhone OS 18_7 like Mac OS X) AppleWebKit/605.1.15 (KHTML, like Gecko) Mobile/15E148","358","632","240","","3344","<div class=""prompt"" style=""font-size:24px; margin-bottom:20px;"">Which word describes you more?</div>","1","pairing","23","degenerate","inadequate","NegNeg","0","7","negative","negative","7","inadequate","right","true"
"html-keyboard-response","48","57041","0.0-2.0-0.23","1088","6","pre","2","evening","2026-04-24","2026-05-07","2026-04-26T01:14:03.534Z","Mozilla/5.0 (iPhone; CPU iPhone OS 18_7 like Mac OS X) AppleWebKit/605.1.15 (KHTML, like Gecko) Mobile/15E148","358","632","240","","null","<div style=""font-size:60px;"">+</div>","null","fixation","","","","","","","","","","","",""
"html-button-response","49","58710","0.0-2.0-1.23","1088","6","pre","2","evening","2026-04-24","2026-05-07","2026-04-26T01:14:03.534Z","Mozilla/5.0 (iPhone; CPU iPhone OS 18_7 like Mac OS X) AppleWebKit/605.1.15 (KHTML, like Gecko) Mobile/15E148","358","632","240","","1667","<div class=""prompt"" style=""font-size:24px; margin-bottom:20px;"">Which word describes you more?</div>","1","pairing","24","selfish","tolerant","PosNeg","30","20","negative","positive","10","tolerant","right","true"
"instructions","50","59427","0.0-3.0","1088","6","pre","2","evening","2026-04-24","2026-05-07","2026-04-26T01:14:03.534Z","Mozilla/5.0 (iPhone; CPU iPhone OS 18_7 like Mac OS X) AppleWebKit/605.1.15 (KHTML, like Gecko) Mobile/15E148","358","632","240","[{""page_index"":0,""viewing_time"":715}]","716","","","","","","","","","","","","","","",""
