"trial_type","trial_index","time_elapsed","internal_node_id","PUNS_ID","session_number","session_phase","session_day","session_slot","ema_start_date","ema_post_start_date","experiment_start","browser","screen_width","screen_height","timezone_offset","view_history","rt","stimulus","response","which_experiment_phase","trial_number","left_word","right_word","valence","left_base_rating","right_base_rating","left_valence","right_valence","abs_diff","participant_response","chosen_side","valid_response"
"pavlovia","0","1932","0.0-0.0","1024","16","pre","6","morning","2026-02-18","2026-03-02","2026-02-23T14:33:39.290Z","Mozilla/5.0 (iPhone; CPU iPhone OS 18_6_2 like Mac OS X) AppleWebKit/605.1.15 (KHTML, like Gecko) Mobile/15E148","361","628","480","","","","","","","","","","","","","","","","",""
"instructions","1","7631","0.0-1.0","1024","16","pre","6","morning","2026-02-18","2026-03-02","2026-02-23T14:33:39.290Z","Mozilla/5.0 (iPhone; CPU iPhone OS 18_6_2 like Mac OS X) AppleWebKit/605.1.15 (KHTML, like Gecko) Mobile/15E148","361","628","480","[{""page_index"":0,""viewing_time"":1113},{""page_index"":1,""viewing_time"":971},{""page_index"":2,""viewing_time"":2048},{""page_index"":3,""viewing_time"":1564}]","5697","","","","","","","","","","","","","","",""
"html-keyboard-response","2","8434","0.0-2.0-0.0","1024","16","pre","6","morning","2026-02-18","2026-03-02","2026-02-23T14:33:39.290Z","Mozilla/5.0 (iPhone; CPU iPhone OS 18_6_2 like Mac OS X) AppleWebKit/605.1.15 (KHTML, like Gecko) Mobile/15E148","361","628","480","","null","<div style=""font-size:60px;"">+</div>","null","fixation","","","","","","","","","","","",""
"html-button-response","3","10627","0.0-2.0-1.0","1024","16","pre","6","morning","2026-02-18","2026-03-02","2026-02-23T14:33:39.290Z","Mozilla/5.0 (iPhone; CPU iPhone OS 18_6_2 like Mac OS X) AppleWebKit/605.1.15 (KHTML, like Gecko) Mobile/15E148","361","628","480","","2191","<div class=""prompt"" style=""font-size:24px; margin-bottom:20px;"">Which word describes you more?</div>","1","pairing","1","sadistic","inadequate","NegNeg","0","14","negative","negative","14","inadequate","right","true"
"html-keyboard-response","4","11429","0.0-2.0-0.1","1024","16","pre","6","morning","2026-02-18","2026-03-02","2026-02-23T14:33:39.290Z","Mozilla/5.0 (iPhone; CPU iPhone OS 18_6_2 like Mac OS X) AppleWebKit/605.1.15 (KHTML, like Gecko) Mobile/15E148","361","628","480","","null","<div style=""font-size:60px;"">+</div>","null","fixation","","","","","","","","","","","",""
"html-button-response","5","13105","0.0-2.0-1.1","1024","16","pre","6","morning","2026-02-18","2026-03-02","2026-02-23T14:33:39.290Z","Mozilla/5.0 (iPhone; CPU iPhone OS 18_6_2 like Mac OS X) AppleWebKit/605.1.15 (KHTML, like Gecko) Mobile/15E148","361","628","480","","1674","<div class=""prompt"" style=""font-size:24px; margin-bottom:20px;"">Which word describes you more?</div>","0","pairing","2","fun","courteous","PosPos","100","66","positive","positive","34","fun","left","true"
"html-keyboard-response","6","13907","0.0-2.0-0.2","1024","16","pre","6","morning","2026-02-18","2026-03-02","2026-02-23T14:33:39.290Z","Mozilla/5.0 (iPhone; CPU iPhone OS 18_6_2 like Mac OS X) AppleWebKit/605.1.15 (KHTML, like Gecko) Mobile/15E148","361","628","480","","null","<div style=""font-size:60px;"">+</div>","null","fixation","","","","","","","","","","","",""
"html-button-response","7","15418","0.0-2.0-1.2","1024","16","pre","6","morning","2026-02-18","2026-03-02","2026-02-23T14:33:39.290Z","Mozilla/5.0 (iPhone; CPU iPhone OS 18_6_2 like Mac OS X) AppleWebKit/605.1.15 (KHTML, like Gecko) Mobile/15E148","361","628","480","","1509","<div class=""prompt"" style=""font-size:24px; margin-bottom:20px;"">Which word describes you more?</div>","0","pairing","3","flawless","degenerate","PosNeg","28","0","positive","negative","28","flawless","left","true"
"html-keyboard-response","8","16220","0.0-2.0-0.3","1024","16","pre","6","morning","2026-02-18","2026-03-02","2026-02-23T14:33:39.290Z","Mozilla/5.0 (iPhone; CPU iPhone OS 18_6_2 like Mac OS X) AppleWebKit/605.1.15 (KHTML, like Gecko) Mobile/15E148","361","628","480","","null","<div style=""font-size:60px;"">+</div>","null","fixation","","","","","","","","","","","",""
"html-button-response","9","18314","0.0-2.0-1.3","1024","16","pre","6","morning","2026-02-18","2026-03-02","2026-02-23T14:33:39.290Z","Mozilla/5.0 (iPhone; CPU iPhone OS 18_6_2 like Mac OS X) AppleWebKit/605.1.15 (KHTML, like Gecko) Mobile/15E148","361","628","480","","2092","<div class=""prompt"" style=""font-size:24px; margin-bottom:20px;"">Which word describes you more?</div>","1","pairing","4","graceful","admired","PosPos","44","100","positive","positive","56","admired","right","true"
"html-keyboard-response","10","19116","0.0-2.0-0.4","1024","16","pre","6","morning","2026-02-18","2026-03-02","2026-02-23T14:33:39.290Z","Mozilla/5.0 (iPhone; CPU iPhone OS 18_6_2 like Mac OS X) AppleWebKit/605.1.15 (KHTML, like Gecko) Mobile/15E148","361","628","480","","null","<div style=""font-size:60px;"">+</div>","null","fixation","","","","","","","","","","","",""
"html-button-response","11","20693","0.0-2.0-1.4","1024","16","pre","6","morning","2026-02-18","2026-03-02","2026-02-23T14:33:39.290Z","Mozilla/5.0 (iPhone; CPU iPhone OS 18_6_2 like Mac OS X) AppleWebKit/605.1.15 (KHTML, like Gecko) Mobile/15E148","361","628","480","","1575","<div class=""prompt"" style=""font-size:24px; margin-bottom:20px;"">Which word describes you more?</div>","1","pairing","5","unlucky","gentle","PosNeg","0","98","negative","positive","98","gentle","right","true"
"html-keyboard-response","12","21497","0.0-2.0-0.5","1024","16","pre","6","morning","2026-02-18","2026-03-02","2026-02-23T14:33:39.290Z","Mozilla/5.0 (iPhone; CPU iPhone OS 18_6_2 like Mac OS X) AppleWebKit/605.1.15 (KHTML, like Gecko) Mobile/15E148","361","628","480","","null","<div style=""font-size:60px;"">+</div>","null","fixation","","","","","","","","","","","",""
"html-button-response","13","22723","0.0-2.0-1.5","1024","16","pre","6","morning","2026-02-18","2026-03-02","2026-02-23T14:33:39.290Z","Mozilla/5.0 (iPhone; CPU iPhone OS 18_6_2 like Mac OS X) AppleWebKit/605.1.15 (KHTML, like Gecko) Mobile/15E148","361","628","480","","1224","<div class=""prompt"" style=""font-size:24px; margin-bottom:20px;"">Which word describes you more?</div>","1","pairing","6","fool","decisive","PosNeg","55","0","negative","positive","55","decisive","right","true"
"html-keyboard-response","14","23526","0.0-2.0-0.6","1024","16","pre","6","morning","2026-02-18","2026-03-02","2026-02-23T14:33:39.290Z","Mozilla/5.0 (iPhone; CPU iPhone OS 18_6_2 like Mac OS X) AppleWebKit/605.1.15 (KHTML, like Gecko) Mobile/15E148","361","628","480","","null","<div style=""font-size:60px;"">+</div>","null","fixation","","","","","","","","","","","",""
"html-button-response","15","26717","0.0-2.0-1.6","1024","16","pre","6","morning","2026-02-18","2026-03-02","2026-02-23T14:33:39.290Z","Mozilla/5.0 (iPhone; CPU iPhone OS 18_6_2 like Mac OS X) AppleWebKit/605.1.15 (KHTML, like Gecko) Mobile/15E148","361","628","480","","3189","<div class=""prompt"" style=""font-size:24px; margin-bottom:20px;"">Which word describes you more?</div>","1","pairing","7","failure","hesitant","NegNeg","10","9","negative","negative","1","hesitant","right","true"
"html-keyboard-response","16","27519","0.0-2.0-0.7","1024","16","pre","6","morning","2026-02-18","2026-03-02","2026-02-23T14:33:39.290Z","Mozilla/5.0 (iPhone; CPU iPhone OS 18_6_2 like Mac OS X) AppleWebKit/605.1.15 (KHTML, like Gecko) Mobile/15E148","361","628","480","","null","<div style=""font-size:60px;"">+</div>","null","fixation","","","","","","","","","","","",""
"html-button-response","17","28897","0.0-2.0-1.7","1024","16","pre","6","morning","2026-02-18","2026-03-02","2026-02-23T14:33:39.290Z","Mozilla/5.0 (iPhone; CPU iPhone OS 18_6_2 like Mac OS X) AppleWebKit/605.1.15 (KHTML, like Gecko) Mobile/15E148","361","628","480","","1376","<div class=""prompt"" style=""font-size:24px; margin-bottom:20px;"">Which word describes you more?</div>","1","pairing","8","failure","courteous","PosNeg","10","66","negative","positive","56","courteous","right","true"
"html-keyboard-response","18","29699","0.0-2.0-0.8","1024","16","pre","6","morning","2026-02-18","2026-03-02","2026-02-23T14:33:39.290Z","Mozilla/5.0 (iPhone; CPU iPhone OS 18_6_2 like Mac OS X) AppleWebKit/605.1.15 (KHTML, like Gecko) Mobile/15E148","361","628","480","","null","<div style=""font-size:60px;"">+</div>","null","fixation","","","","","","","","","","","",""
"html-button-response","19","31476","0.0-2.0-1.8","1024","16","pre","6","morning","2026-02-18","2026-03-02","2026-02-23T14:33:39.290Z","Mozilla/5.0 (iPhone; CPU iPhone OS 18_6_2 like Mac OS X) AppleWebKit/605.1.15 (KHTML, like Gecko) Mobile/15E148","361","628","480","","1776","<div class=""prompt"" style=""font-size:24px; margin-bottom:20px;"">Which word describes you more?</div>","1","pairing","9","arrogant","flawless","PosNeg","0","28","negative","positive","28","flawless","right","true"
"html-keyboard-response","20","32278","0.0-2.0-0.9","1024","16","pre","6","morning","2026-02-18","2026-03-02","2026-02-23T14:33:39.290Z","Mozilla/5.0 (iPhone; CPU iPhone OS 18_6_2 like Mac OS X) AppleWebKit/605.1.15 (KHTML, like Gecko) Mobile/15E148","361","628","480","","null","<div style=""font-size:60px;"">+</div>","null","fixation","","","","","","","","","","","",""
"html-button-response","21","33506","0.0-2.0-1.9","1024","16","pre","6","morning","2026-02-18","2026-03-02","2026-02-23T14:33:39.290Z","Mozilla/5.0 (iPhone; CPU iPhone OS 18_6_2 like Mac OS X) AppleWebKit/605.1.15 (KHTML, like Gecko) Mobile/15E148","361","628","480","","1225","<div class=""prompt"" style=""font-size:24px; margin-bottom:20px;"">Which word describes you more?</div>","1","pairing","10","degenerate","successful","PosNeg","0","100","negative","positive","100","successful","right","true"
"html-keyboard-response","22","34309","0.0-2.0-0.10","1024","16","pre","6","morning","2026-02-18","2026-03-02","2026-02-23T14:33:39.290Z","Mozilla/5.0 (iPhone; CPU iPhone OS 18_6_2 like Mac OS X) AppleWebKit/605.1.15 (KHTML, like Gecko) Mobile/15E148","361","628","480","","null","<div style=""font-size:60px;"">+</div>","null","fixation","","","","","","","","","","","",""
"html-button-response","23","35670","0.0-2.0-1.10","1024","16","pre","6","morning","2026-02-18","2026-03-02","2026-02-23T14:33:39.290Z","Mozilla/5.0 (iPhone; CPU iPhone OS 18_6_2 like Mac OS X) AppleWebKit/605.1.15 (KHTML, like Gecko) Mobile/15E148","361","628","480","","1359","<div class=""prompt"" style=""font-size:24px; margin-bottom:20px;"">Which word describes you more?</div>","1","pairing","11","outcast","decisive","PosNeg","6","0","negative","positive","6","decisive","right","true"
"html-keyboard-response","24","36471","0.0-2.0-0.11","1024","16","pre","6","morning","2026-02-18","2026-03-02","2026-02-23T14:33:39.290Z","Mozilla/5.0 (iPhone; CPU iPhone OS 18_6_2 like Mac OS X) AppleWebKit/605.1.15 (KHTML, like Gecko) Mobile/15E148","361","628","480","","null","<div style=""font-size:60px;"">+</div>","null","fixation","","","","","","","","","","","",""
"html-button-response","25","38766","0.0-2.0-1.11","1024","16","pre","6","morning","2026-02-18","2026-03-02","2026-02-23T14:33:39.290Z","Mozilla/5.0 (iPhone; CPU iPhone OS 18_6_2 like Mac OS X) AppleWebKit/605.1.15 (KHTML, like Gecko) Mobile/15E148","361","628","480","","2293","<div class=""prompt"" style=""font-size:24px; margin-bottom:20px;"">Which word describes you more?</div>","0","pairing","12","clever","inadequate","PosNeg","94","14","positive","negative","80","clever","left","true"
"html-keyboard-response","26","39568","0.0-2.0-0.12","1024","16","pre","6","morning","2026-02-18","2026-03-02","2026-02-23T14:33:39.290Z","Mozilla/5.0 (iPhone; CPU iPhone OS 18_6_2 like Mac OS X) AppleWebKit/605.1.15 (KHTML, like Gecko) Mobile/15E148","361","628","480","","null","<div style=""font-size:60px;"">+</div>","null","fixation","","","","","","","","","","","",""
"html-button-response","27","42357","0.0-2.0-1.12","1024","16","pre","6","morning","2026-02-18","2026-03-02","2026-02-23T14:33:39.290Z","Mozilla/5.0 (iPhone; CPU iPhone OS 18_6_2 like Mac OS X) AppleWebKit/605.1.15 (KHTML, like Gecko) Mobile/15E148","361","628","480","","2788","<div class=""prompt"" style=""font-size:24px; margin-bottom:20px;"">Which word describes you more?</div>","1","pairing","13","legendary","awkward","PosNeg","1","3","positive","negative","2","awkward","right","true"
"html-keyboard-response","28","43159","0.0-2.0-0.13","1024","16","pre","6","morning","2026-02-18","2026-03-02","2026-02-23T14:33:39.290Z","Mozilla/5.0 (iPhone; CPU iPhone OS 18_6_2 like Mac OS X) AppleWebKit/605.1.15 (KHTML, like Gecko) Mobile/15E148","361","628","480","","null","<div style=""font-size:60px;"">+</div>","null","fixation","","","","","","","","","","","",""
"html-button-response","29","44606","0.0-2.0-1.13","1024","16","pre","6","morning","2026-02-18","2026-03-02","2026-02-23T14:33:39.290Z","Mozilla/5.0 (iPhone; CPU iPhone OS 18_6_2 like Mac OS X) AppleWebKit/605.1.15 (KHTML, like Gecko) Mobile/15E148","361","628","480","","1446","<div class=""prompt"" style=""font-size:24px; margin-bottom:20px;"">Which word describes you more?</div>","0","pairing","14","playful","unique","PosPos","100","78","positive","positive","22","playful","left","true"
"html-keyboard-response","30","45408","0.0-2.0-0.14","1024","16","pre","6","morning","2026-02-18","2026-03-02","2026-02-23T14:33:39.290Z","Mozilla/5.0 (iPhone; CPU iPhone OS 18_6_2 like Mac OS X) AppleWebKit/605.1.15 (KHTML, like Gecko) Mobile/15E148","361","628","480","","null","<div style=""font-size:60px;"">+</div>","null","fixation","","","","","","","","","","","",""
"html-button-response","31","47235","0.0-2.0-1.14","1024","16","pre","6","morning","2026-02-18","2026-03-02","2026-02-23T14:33:39.290Z","Mozilla/5.0 (iPhone; CPU iPhone OS 18_6_2 like Mac OS X) AppleWebKit/605.1.15 (KHTML, like Gecko) Mobile/15E148","361","628","480","","1826","<div class=""prompt"" style=""font-size:24px; margin-bottom:20px;"">Which word describes you more?</div>","0","pairing","15","expert","safe","PosPos","96","100","positive","positive","4","expert","left","true"
"html-keyboard-response","32","48037","0.0-2.0-0.15","1024","16","pre","6","morning","2026-02-18","2026-03-02","2026-02-23T14:33:39.290Z","Mozilla/5.0 (iPhone; CPU iPhone OS 18_6_2 like Mac OS X) AppleWebKit/605.1.15 (KHTML, like Gecko) Mobile/15E148","361","628","480","","null","<div style=""font-size:60px;"">+</div>","null","fixation","","","","","","","","","","","",""
"html-button-response","33","50696","0.0-2.0-1.15","1024","16","pre","6","morning","2026-02-18","2026-03-02","2026-02-23T14:33:39.290Z","Mozilla/5.0 (iPhone; CPU iPhone OS 18_6_2 like Mac OS X) AppleWebKit/605.1.15 (KHTML, like Gecko) Mobile/15E148","361","628","480","","2657","<div class=""prompt"" style=""font-size:24px; margin-bottom:20px;"">Which word describes you more?</div>","1","pairing","16","burden","distressed","NegNeg","0","0","negative","negative","0","distressed","right","true"
"html-keyboard-response","34","51499","0.0-2.0-0.16","1024","16","pre","6","morning","2026-02-18","2026-03-02","2026-02-23T14:33:39.290Z","Mozilla/5.0 (iPhone; CPU iPhone OS 18_6_2 like Mac OS X) AppleWebKit/605.1.15 (KHTML, like Gecko) Mobile/15E148","361","628","480","","null","<div style=""font-size:60px;"">+</div>","null","fixation","","","","","","","","","","","",""
"html-button-response","35","53574","0.0-2.0-1.16","1024","16","pre","6","morning","2026-02-18","2026-03-02","2026-02-23T14:33:39.290Z","Mozilla/5.0 (iPhone; CPU iPhone OS 18_6_2 like Mac OS X) AppleWebKit/605.1.15 (KHTML, like Gecko) Mobile/15E148","361","628","480","","2074","<div class=""prompt"" style=""font-size:24px; margin-bottom:20px;"">Which word describes you more?</div>","1","pairing","17","brave","sloppy","PosNeg","68","13","positive","negative","55","sloppy","right","true"
"html-keyboard-response","36","54377","0.0-2.0-0.17","1024","16","pre","6","morning","2026-02-18","2026-03-02","2026-02-23T14:33:39.290Z","Mozilla/5.0 (iPhone; CPU iPhone OS 18_6_2 like Mac OS X) AppleWebKit/605.1.15 (KHTML, like Gecko) Mobile/15E148","361","628","480","","null","<div style=""font-size:60px;"">+</div>","null","fixation","","","","","","","","","","","",""
"html-button-response","37","56337","0.0-2.0-1.17","1024","16","pre","6","morning","2026-02-18","2026-03-02","2026-02-23T14:33:39.290Z","Mozilla/5.0 (iPhone; CPU iPhone OS 18_6_2 like Mac OS X) AppleWebKit/605.1.15 (KHTML, like Gecko) Mobile/15E148","361","628","480","","1958","<div class=""prompt"" style=""font-size:24px; margin-bottom:20px;"">Which word describes you more?</div>","0","pairing","18","fool","sloppy","NegNeg","55","13","negative","negative","42","fool","left","true"
"html-keyboard-response","38","57139","0.0-2.0-0.18","1024","16","pre","6","morning","2026-02-18","2026-03-02","2026-02-23T14:33:39.290Z","Mozilla/5.0 (iPhone; CPU iPhone OS 18_6_2 like Mac OS X) AppleWebKit/605.1.15 (KHTML, like Gecko) Mobile/15E148","361","628","480","","null","<div style=""font-size:60px;"">+</div>","null","fixation","","","","","","","","","","","",""
"html-button-response","39","58750","0.0-2.0-1.18","1024","16","pre","6","morning","2026-02-18","2026-03-02","2026-02-23T14:33:39.290Z","Mozilla/5.0 (iPhone; CPU iPhone OS 18_6_2 like Mac OS X) AppleWebKit/605.1.15 (KHTML, like Gecko) Mobile/15E148","361","628","480","","1608","<div class=""prompt"" style=""font-size:24px; margin-bottom:20px;"">Which word describes you more?</div>","0","pairing","19","skilled","traitor","PosNeg","100","0","positive","negative","100","skilled","left","true"
"html-keyboard-response","40","59552","0.0-2.0-0.19","1024","16","pre","6","morning","2026-02-18","2026-03-02","2026-02-23T14:33:39.290Z","Mozilla/5.0 (iPhone; CPU iPhone OS 18_6_2 like Mac OS X) AppleWebKit/605.1.15 (KHTML, like Gecko) Mobile/15E148","361","628","480","","null","<div style=""font-size:60px;"">+</div>","null","fixation","","","","","","","","","","","",""
"html-button-response","41","61463","0.0-2.0-1.19","1024","16","pre","6","morning","2026-02-18","2026-03-02","2026-02-23T14:33:39.290Z","Mozilla/5.0 (iPhone; CPU iPhone OS 18_6_2 like Mac OS X) AppleWebKit/605.1.15 (KHTML, like Gecko) Mobile/15E148","361","628","480","","1910","<div class=""prompt"" style=""font-size:24px; margin-bottom:20px;"">Which word describes you more?</div>","1","pairing","20","heartbroken","fool","NegNeg","0","55","negative","negative","55","fool","right","true"
"html-keyboard-response","42","62265","0.0-2.0-0.20","1024","16","pre","6","morning","2026-02-18","2026-03-02","2026-02-23T14:33:39.290Z","Mozilla/5.0 (iPhone; CPU iPhone OS 18_6_2 like Mac OS X) AppleWebKit/605.1.15 (KHTML, like Gecko) Mobile/15E148","361","628","480","","null","<div style=""font-size:60px;"">+</div>","null","fixation","","","","","","","","","","","",""
"html-button-response","43","66735","0.0-2.0-1.20","1024","16","pre","6","morning","2026-02-18","2026-03-02","2026-02-23T14:33:39.290Z","Mozilla/5.0 (iPhone; CPU iPhone OS 18_6_2 like Mac OS X) AppleWebKit/605.1.15 (KHTML, like Gecko) Mobile/15E148","361","628","480","","4468","<div class=""prompt"" style=""font-size:24px; margin-bottom:20px;"">Which word describes you more?</div>","1","pairing","21","disgusting","selfish","NegNeg","0","0","negative","negative","0","selfish","right","true"
"html-keyboard-response","44","67537","0.0-2.0-0.21","1024","16","pre","6","morning","2026-02-18","2026-03-02","2026-02-23T14:33:39.290Z","Mozilla/5.0 (iPhone; CPU iPhone OS 18_6_2 like Mac OS X) AppleWebKit/605.1.15 (KHTML, like Gecko) Mobile/15E148","361","628","480","","null","<div style=""font-size:60px;"">+</div>","null","fixation","","","","","","","","","","","",""
"html-button-response","45","69184","0.0-2.0-1.21","1024","16","pre","6","morning","2026-02-18","2026-03-02","2026-02-23T14:33:39.290Z","Mozilla/5.0 (iPhone; CPU iPhone OS 18_6_2 like Mac OS X) AppleWebKit/605.1.15 (KHTML, like Gecko) Mobile/15E148","361","628","480","","1645","<div class=""prompt"" style=""font-size:24px; margin-bottom:20px;"">Which word describes you more?</div>","1","pairing","22","decisive","successful","PosPos","0","100","positive","positive","100","successful","right","true"
"html-keyboard-response","46","69986","0.0-2.0-0.22","1024","16","pre","6","morning","2026-02-18","2026-03-02","2026-02-23T14:33:39.290Z","Mozilla/5.0 (iPhone; CPU iPhone OS 18_6_2 like Mac OS X) AppleWebKit/605.1.15 (KHTML, like Gecko) Mobile/15E148","361","628","480","","null","<div style=""font-size:60px;"">+</div>","null","fixation","","","","","","","","","","","",""
"html-button-response","47","73042","0.0-2.0-1.22","1024","16","pre","6","morning","2026-02-18","2026-03-02","2026-02-23T14:33:39.290Z","Mozilla/5.0 (iPhone; CPU iPhone OS 18_6_2 like Mac OS X) AppleWebKit/605.1.15 (KHTML, like Gecko) Mobile/15E148","361","628","480","","3055","<div class=""prompt"" style=""font-size:24px; margin-bottom:20px;"">Which word describes you more?</div>","0","pairing","23","patient","legendary","PosPos","100","1","positive","positive","99","patient","left","true"
"html-keyboard-response","48","73844","0.0-2.0-0.23","1024","16","pre","6","morning","2026-02-18","2026-03-02","2026-02-23T14:33:39.290Z","Mozilla/5.0 (iPhone; CPU iPhone OS 18_6_2 like Mac OS X) AppleWebKit/605.1.15 (KHTML, like Gecko) Mobile/15E148","361","628","480","","null","<div style=""font-size:60px;"">+</div>","null","fixation","","","","","","","","","","","",""
"html-button-response","49","75208","0.0-2.0-1.23","1024","16","pre","6","morning","2026-02-18","2026-03-02","2026-02-23T14:33:39.290Z","Mozilla/5.0 (iPhone; CPU iPhone OS 18_6_2 like Mac OS X) AppleWebKit/605.1.15 (KHTML, like Gecko) Mobile/15E148","361","628","480","","1362","<div class=""prompt"" style=""font-size:24px; margin-bottom:20px;"">Which word describes you more?</div>","0","pairing","24","cooperative","unlucky","PosNeg","100","0","positive","negative","100","cooperative","left","true"
"instructions","50","76290","0.0-3.0","1024","16","pre","6","morning","2026-02-18","2026-03-02","2026-02-23T14:33:39.290Z","Mozilla/5.0 (iPhone; CPU iPhone OS 18_6_2 like Mac OS X) AppleWebKit/605.1.15 (KHTML, like Gecko) Mobile/15E148","361","628","480","[{""page_index"":0,""viewing_time"":1081}]","1081","","","","","","","","","","","","","","",""
