"trial_type","trial_index","time_elapsed","internal_node_id","PUNS_ID","session_number","session_phase","session_day","session_slot","ema_start_date","ema_post_start_date","experiment_start","browser","screen_width","screen_height","timezone_offset","view_history","rt","stimulus","response","which_experiment_phase","trial_number","left_word","right_word","valence","left_base_rating","right_base_rating","left_valence","right_valence","abs_diff","participant_response","chosen_side","valid_response"
"pavlovia","0","1470","0.0-0.0","1032","26","pre","9","afternoon","2026-04-15","2026-04-27","2026-04-23T22:47:13.081Z","Mozilla/5.0 (Linux; Android 16; Pixel 9 Pro Build/CP1A.260405.005; wv) AppleWebKit/537.36 (KHTML, like Gecko) Version/4.0 Chrome/147.0.7727.55 Mobile Safari/537.36","394","719","420","","","","","","","","","","","","","","","","",""
"instructions","1","3843","0.0-1.0","1032","26","pre","9","afternoon","2026-04-15","2026-04-27","2026-04-23T22:47:13.081Z","Mozilla/5.0 (Linux; Android 16; Pixel 9 Pro Build/CP1A.260405.005; wv) AppleWebKit/537.36 (KHTML, like Gecko) Version/4.0 Chrome/147.0.7727.55 Mobile Safari/537.36","394","719","420","[{""page_index"":0,""viewing_time"":787},{""page_index"":1,""viewing_time"":384},{""page_index"":2,""viewing_time"":598},{""page_index"":3,""viewing_time"":600}]","2369","","","","","","","","","","","","","","",""
"html-keyboard-response","2","4650","0.0-2.0-0.0","1032","26","pre","9","afternoon","2026-04-15","2026-04-27","2026-04-23T22:47:13.081Z","Mozilla/5.0 (Linux; Android 16; Pixel 9 Pro Build/CP1A.260405.005; wv) AppleWebKit/537.36 (KHTML, like Gecko) Version/4.0 Chrome/147.0.7727.55 Mobile Safari/537.36","394","719","420","","null","<div style=""font-size:60px;"">+</div>","null","fixation","","","","","","","","","","","",""
"html-button-response","3","7610","0.0-2.0-1.0","1032","26","pre","9","afternoon","2026-04-15","2026-04-27","2026-04-23T22:47:13.081Z","Mozilla/5.0 (Linux; Android 16; Pixel 9 Pro Build/CP1A.260405.005; wv) AppleWebKit/537.36 (KHTML, like Gecko) Version/4.0 Chrome/147.0.7727.55 Mobile Safari/537.36","394","719","420","","2946","<div class=""prompt"" style=""font-size:24px; margin-bottom:20px;"">Which word describes you more?</div>","0","pairing","1","creep","irresponsible","NegNeg","8","1","negative","negative","7","creep","left","true"
"html-keyboard-response","4","8416","0.0-2.0-0.1","1032","26","pre","9","afternoon","2026-04-15","2026-04-27","2026-04-23T22:47:13.081Z","Mozilla/5.0 (Linux; Android 16; Pixel 9 Pro Build/CP1A.260405.005; wv) AppleWebKit/537.36 (KHTML, like Gecko) Version/4.0 Chrome/147.0.7727.55 Mobile Safari/537.36","394","719","420","","null","<div style=""font-size:60px;"">+</div>","null","fixation","","","","","","","","","","","",""
"html-button-response","5","12985","0.0-2.0-1.1","1032","26","pre","9","afternoon","2026-04-15","2026-04-27","2026-04-23T22:47:13.081Z","Mozilla/5.0 (Linux; Android 16; Pixel 9 Pro Build/CP1A.260405.005; wv) AppleWebKit/537.36 (KHTML, like Gecko) Version/4.0 Chrome/147.0.7727.55 Mobile Safari/537.36","394","719","420","","4563","<div class=""prompt"" style=""font-size:24px; margin-bottom:20px;"">Which word describes you more?</div>","0","pairing","2","irresponsible","fraud","NegNeg","1","2","negative","negative","1","irresponsible","left","true"
"html-keyboard-response","6","13788","0.0-2.0-0.2","1032","26","pre","9","afternoon","2026-04-15","2026-04-27","2026-04-23T22:47:13.081Z","Mozilla/5.0 (Linux; Android 16; Pixel 9 Pro Build/CP1A.260405.005; wv) AppleWebKit/537.36 (KHTML, like Gecko) Version/4.0 Chrome/147.0.7727.55 Mobile Safari/537.36","394","719","420","","null","<div style=""font-size:60px;"">+</div>","null","fixation","","","","","","","","","","","",""
"html-button-response","7","16398","0.0-2.0-1.2","1032","26","pre","9","afternoon","2026-04-15","2026-04-27","2026-04-23T22:47:13.081Z","Mozilla/5.0 (Linux; Android 16; Pixel 9 Pro Build/CP1A.260405.005; wv) AppleWebKit/537.36 (KHTML, like Gecko) Version/4.0 Chrome/147.0.7727.55 Mobile Safari/537.36","394","719","420","","2603","<div class=""prompt"" style=""font-size:24px; margin-bottom:20px;"">Which word describes you more?</div>","1","pairing","3","repulsive","spontaneous","PosNeg","0","18","negative","positive","18","spontaneous","right","true"
"html-keyboard-response","8","17202","0.0-2.0-0.3","1032","26","pre","9","afternoon","2026-04-15","2026-04-27","2026-04-23T22:47:13.081Z","Mozilla/5.0 (Linux; Android 16; Pixel 9 Pro Build/CP1A.260405.005; wv) AppleWebKit/537.36 (KHTML, like Gecko) Version/4.0 Chrome/147.0.7727.55 Mobile Safari/537.36","394","719","420","","null","<div style=""font-size:60px;"">+</div>","null","fixation","","","","","","","","","","","",""
"html-button-response","9","20204","0.0-2.0-1.3","1032","26","pre","9","afternoon","2026-04-15","2026-04-27","2026-04-23T22:47:13.081Z","Mozilla/5.0 (Linux; Android 16; Pixel 9 Pro Build/CP1A.260405.005; wv) AppleWebKit/537.36 (KHTML, like Gecko) Version/4.0 Chrome/147.0.7727.55 Mobile Safari/537.36","394","719","420","","2992","<div class=""prompt"" style=""font-size:24px; margin-bottom:20px;"">Which word describes you more?</div>","1","pairing","4","fun","goodwilled","PosPos","74","80","positive","positive","6","goodwilled","right","true"
"html-keyboard-response","10","21010","0.0-2.0-0.4","1032","26","pre","9","afternoon","2026-04-15","2026-04-27","2026-04-23T22:47:13.081Z","Mozilla/5.0 (Linux; Android 16; Pixel 9 Pro Build/CP1A.260405.005; wv) AppleWebKit/537.36 (KHTML, like Gecko) Version/4.0 Chrome/147.0.7727.55 Mobile Safari/537.36","394","719","420","","null","<div style=""font-size:60px;"">+</div>","null","fixation","","","","","","","","","","","",""
"html-button-response","11","22852","0.0-2.0-1.4","1032","26","pre","9","afternoon","2026-04-15","2026-04-27","2026-04-23T22:47:13.081Z","Mozilla/5.0 (Linux; Android 16; Pixel 9 Pro Build/CP1A.260405.005; wv) AppleWebKit/537.36 (KHTML, like Gecko) Version/4.0 Chrome/147.0.7727.55 Mobile Safari/537.36","394","719","420","","1832","<div class=""prompt"" style=""font-size:24px; margin-bottom:20px;"">Which word describes you more?</div>","1","pairing","5","menace","unlucky","NegNeg","0","60","negative","negative","60","unlucky","right","true"
"html-keyboard-response","12","23658","0.0-2.0-0.5","1032","26","pre","9","afternoon","2026-04-15","2026-04-27","2026-04-23T22:47:13.081Z","Mozilla/5.0 (Linux; Android 16; Pixel 9 Pro Build/CP1A.260405.005; wv) AppleWebKit/537.36 (KHTML, like Gecko) Version/4.0 Chrome/147.0.7727.55 Mobile Safari/537.36","394","719","420","","null","<div style=""font-size:60px;"">+</div>","null","fixation","","","","","","","","","","","",""
"html-button-response","13","26357","0.0-2.0-1.5","1032","26","pre","9","afternoon","2026-04-15","2026-04-27","2026-04-23T22:47:13.081Z","Mozilla/5.0 (Linux; Android 16; Pixel 9 Pro Build/CP1A.260405.005; wv) AppleWebKit/537.36 (KHTML, like Gecko) Version/4.0 Chrome/147.0.7727.55 Mobile Safari/537.36","394","719","420","","2691","<div class=""prompt"" style=""font-size:24px; margin-bottom:20px;"">Which word describes you more?</div>","0","pairing","6","alone","lifeless","NegNeg","15","3","negative","negative","12","alone","left","true"
"html-keyboard-response","14","27162","0.0-2.0-0.6","1032","26","pre","9","afternoon","2026-04-15","2026-04-27","2026-04-23T22:47:13.081Z","Mozilla/5.0 (Linux; Android 16; Pixel 9 Pro Build/CP1A.260405.005; wv) AppleWebKit/537.36 (KHTML, like Gecko) Version/4.0 Chrome/147.0.7727.55 Mobile Safari/537.36","394","719","420","","null","<div style=""font-size:60px;"">+</div>","null","fixation","","","","","","","","","","","",""
"html-button-response","15","29056","0.0-2.0-1.6","1032","26","pre","9","afternoon","2026-04-15","2026-04-27","2026-04-23T22:47:13.081Z","Mozilla/5.0 (Linux; Android 16; Pixel 9 Pro Build/CP1A.260405.005; wv) AppleWebKit/537.36 (KHTML, like Gecko) Version/4.0 Chrome/147.0.7727.55 Mobile Safari/537.36","394","719","420","","1883","<div class=""prompt"" style=""font-size:24px; margin-bottom:20px;"">Which word describes you more?</div>","0","pairing","7","authentic","traitor","PosNeg","99","0","positive","negative","99","authentic","left","true"
"html-keyboard-response","16","29861","0.0-2.0-0.7","1032","26","pre","9","afternoon","2026-04-15","2026-04-27","2026-04-23T22:47:13.081Z","Mozilla/5.0 (Linux; Android 16; Pixel 9 Pro Build/CP1A.260405.005; wv) AppleWebKit/537.36 (KHTML, like Gecko) Version/4.0 Chrome/147.0.7727.55 Mobile Safari/537.36","394","719","420","","null","<div style=""font-size:60px;"">+</div>","null","fixation","","","","","","","","","","","",""
"html-button-response","17","31711","0.0-2.0-1.7","1032","26","pre","9","afternoon","2026-04-15","2026-04-27","2026-04-23T22:47:13.081Z","Mozilla/5.0 (Linux; Android 16; Pixel 9 Pro Build/CP1A.260405.005; wv) AppleWebKit/537.36 (KHTML, like Gecko) Version/4.0 Chrome/147.0.7727.55 Mobile Safari/537.36","394","719","420","","1842","<div class=""prompt"" style=""font-size:24px; margin-bottom:20px;"">Which word describes you more?</div>","0","pairing","8","flawless","degenerate","PosNeg","7","49","positive","negative","42","flawless","left","true"
"html-keyboard-response","18","32517","0.0-2.0-0.8","1032","26","pre","9","afternoon","2026-04-15","2026-04-27","2026-04-23T22:47:13.081Z","Mozilla/5.0 (Linux; Android 16; Pixel 9 Pro Build/CP1A.260405.005; wv) AppleWebKit/537.36 (KHTML, like Gecko) Version/4.0 Chrome/147.0.7727.55 Mobile Safari/537.36","394","719","420","","null","<div style=""font-size:60px;"">+</div>","null","fixation","","","","","","","","","","","",""
"html-button-response","19","37427","0.0-2.0-1.8","1032","26","pre","9","afternoon","2026-04-15","2026-04-27","2026-04-23T22:47:13.081Z","Mozilla/5.0 (Linux; Android 16; Pixel 9 Pro Build/CP1A.260405.005; wv) AppleWebKit/537.36 (KHTML, like Gecko) Version/4.0 Chrome/147.0.7727.55 Mobile Safari/537.36","394","719","420","","4903","<div class=""prompt"" style=""font-size:24px; margin-bottom:20px;"">Which word describes you more?</div>","0","pairing","9","talented","blissful","PosPos","96","51","positive","positive","45","talented","left","true"
"html-keyboard-response","20","38231","0.0-2.0-0.9","1032","26","pre","9","afternoon","2026-04-15","2026-04-27","2026-04-23T22:47:13.081Z","Mozilla/5.0 (Linux; Android 16; Pixel 9 Pro Build/CP1A.260405.005; wv) AppleWebKit/537.36 (KHTML, like Gecko) Version/4.0 Chrome/147.0.7727.55 Mobile Safari/537.36","394","719","420","","null","<div style=""font-size:60px;"">+</div>","null","fixation","","","","","","","","","","","",""
"html-button-response","21","39397","0.0-2.0-1.9","1032","26","pre","9","afternoon","2026-04-15","2026-04-27","2026-04-23T22:47:13.081Z","Mozilla/5.0 (Linux; Android 16; Pixel 9 Pro Build/CP1A.260405.005; wv) AppleWebKit/537.36 (KHTML, like Gecko) Version/4.0 Chrome/147.0.7727.55 Mobile Safari/537.36","394","719","420","","1158","<div class=""prompt"" style=""font-size:24px; margin-bottom:20px;"">Which word describes you more?</div>","0","pairing","10","flawless","quitter","PosNeg","7","11","positive","negative","4","flawless","left","true"
"html-keyboard-response","22","40202","0.0-2.0-0.10","1032","26","pre","9","afternoon","2026-04-15","2026-04-27","2026-04-23T22:47:13.081Z","Mozilla/5.0 (Linux; Android 16; Pixel 9 Pro Build/CP1A.260405.005; wv) AppleWebKit/537.36 (KHTML, like Gecko) Version/4.0 Chrome/147.0.7727.55 Mobile Safari/537.36","394","719","420","","null","<div style=""font-size:60px;"">+</div>","null","fixation","","","","","","","","","","","",""
"html-button-response","23","41747","0.0-2.0-1.10","1032","26","pre","9","afternoon","2026-04-15","2026-04-27","2026-04-23T22:47:13.081Z","Mozilla/5.0 (Linux; Android 16; Pixel 9 Pro Build/CP1A.260405.005; wv) AppleWebKit/537.36 (KHTML, like Gecko) Version/4.0 Chrome/147.0.7727.55 Mobile Safari/537.36","394","719","420","","1537","<div class=""prompt"" style=""font-size:24px; margin-bottom:20px;"">Which word describes you more?</div>","0","pairing","11","blissful","immoral","PosNeg","51","4","positive","negative","47","blissful","left","true"
"html-keyboard-response","24","42553","0.0-2.0-0.11","1032","26","pre","9","afternoon","2026-04-15","2026-04-27","2026-04-23T22:47:13.081Z","Mozilla/5.0 (Linux; Android 16; Pixel 9 Pro Build/CP1A.260405.005; wv) AppleWebKit/537.36 (KHTML, like Gecko) Version/4.0 Chrome/147.0.7727.55 Mobile Safari/537.36","394","719","420","","null","<div style=""font-size:60px;"">+</div>","null","fixation","","","","","","","","","","","",""
"html-button-response","25","47562","0.0-2.0-1.11","1032","26","pre","9","afternoon","2026-04-15","2026-04-27","2026-04-23T22:47:13.081Z","Mozilla/5.0 (Linux; Android 16; Pixel 9 Pro Build/CP1A.260405.005; wv) AppleWebKit/537.36 (KHTML, like Gecko) Version/4.0 Chrome/147.0.7727.55 Mobile Safari/537.36","394","719","420","","null","<div class=""prompt"" style=""font-size:24px; margin-bottom:20px;"">Which word describes you more?</div>","null","pairing","12","unpleasant","empty","NegNeg","2","10","negative","negative","8","null","null","false"
"html-keyboard-response","26","48368","0.0-2.0-0.12","1032","26","pre","9","afternoon","2026-04-15","2026-04-27","2026-04-23T22:47:13.081Z","Mozilla/5.0 (Linux; Android 16; Pixel 9 Pro Build/CP1A.260405.005; wv) AppleWebKit/537.36 (KHTML, like Gecko) Version/4.0 Chrome/147.0.7727.55 Mobile Safari/537.36","394","719","420","","null","<div style=""font-size:60px;"">+</div>","null","fixation","","","","","","","","","","","",""
"html-button-response","27","49467","0.0-2.0-1.12","1032","26","pre","9","afternoon","2026-04-15","2026-04-27","2026-04-23T22:47:13.081Z","Mozilla/5.0 (Linux; Android 16; Pixel 9 Pro Build/CP1A.260405.005; wv) AppleWebKit/537.36 (KHTML, like Gecko) Version/4.0 Chrome/147.0.7727.55 Mobile Safari/537.36","394","719","420","","1093","<div class=""prompt"" style=""font-size:24px; margin-bottom:20px;"">Which word describes you more?</div>","1","pairing","13","anxious","spontaneous","PosNeg","29","18","negative","positive","11","spontaneous","right","true"
"html-keyboard-response","28","50272","0.0-2.0-0.13","1032","26","pre","9","afternoon","2026-04-15","2026-04-27","2026-04-23T22:47:13.081Z","Mozilla/5.0 (Linux; Android 16; Pixel 9 Pro Build/CP1A.260405.005; wv) AppleWebKit/537.36 (KHTML, like Gecko) Version/4.0 Chrome/147.0.7727.55 Mobile Safari/537.36","394","719","420","","null","<div style=""font-size:60px;"">+</div>","null","fixation","","","","","","","","","","","",""
"html-button-response","29","53115","0.0-2.0-1.13","1032","26","pre","9","afternoon","2026-04-15","2026-04-27","2026-04-23T22:47:13.081Z","Mozilla/5.0 (Linux; Android 16; Pixel 9 Pro Build/CP1A.260405.005; wv) AppleWebKit/537.36 (KHTML, like Gecko) Version/4.0 Chrome/147.0.7727.55 Mobile Safari/537.36","394","719","420","","2836","<div class=""prompt"" style=""font-size:24px; margin-bottom:20px;"">Which word describes you more?</div>","1","pairing","14","flawless","valued","PosPos","7","100","positive","positive","93","valued","right","true"
"html-keyboard-response","30","53919","0.0-2.0-0.14","1032","26","pre","9","afternoon","2026-04-15","2026-04-27","2026-04-23T22:47:13.081Z","Mozilla/5.0 (Linux; Android 16; Pixel 9 Pro Build/CP1A.260405.005; wv) AppleWebKit/537.36 (KHTML, like Gecko) Version/4.0 Chrome/147.0.7727.55 Mobile Safari/537.36","394","719","420","","null","<div style=""font-size:60px;"">+</div>","null","fixation","","","","","","","","","","","",""
"html-button-response","31","55457","0.0-2.0-1.14","1032","26","pre","9","afternoon","2026-04-15","2026-04-27","2026-04-23T22:47:13.081Z","Mozilla/5.0 (Linux; Android 16; Pixel 9 Pro Build/CP1A.260405.005; wv) AppleWebKit/537.36 (KHTML, like Gecko) Version/4.0 Chrome/147.0.7727.55 Mobile Safari/537.36","394","719","420","","1532","<div class=""prompt"" style=""font-size:24px; margin-bottom:20px;"">Which word describes you more?</div>","0","pairing","15","gentle","vengeful","PosNeg","35","2","positive","negative","33","gentle","left","true"
"html-keyboard-response","32","56259","0.0-2.0-0.15","1032","26","pre","9","afternoon","2026-04-15","2026-04-27","2026-04-23T22:47:13.081Z","Mozilla/5.0 (Linux; Android 16; Pixel 9 Pro Build/CP1A.260405.005; wv) AppleWebKit/537.36 (KHTML, like Gecko) Version/4.0 Chrome/147.0.7727.55 Mobile Safari/537.36","394","719","420","","null","<div style=""font-size:60px;"">+</div>","null","fixation","","","","","","","","","","","",""
"html-button-response","33","58521","0.0-2.0-1.15","1032","26","pre","9","afternoon","2026-04-15","2026-04-27","2026-04-23T22:47:13.081Z","Mozilla/5.0 (Linux; Android 16; Pixel 9 Pro Build/CP1A.260405.005; wv) AppleWebKit/537.36 (KHTML, like Gecko) Version/4.0 Chrome/147.0.7727.55 Mobile Safari/537.36","394","719","420","","2259","<div class=""prompt"" style=""font-size:24px; margin-bottom:20px;"">Which word describes you more?</div>","0","pairing","16","clever","unfaithful","PosNeg","83","19","positive","negative","64","clever","left","true"
"html-keyboard-response","34","59325","0.0-2.0-0.16","1032","26","pre","9","afternoon","2026-04-15","2026-04-27","2026-04-23T22:47:13.081Z","Mozilla/5.0 (Linux; Android 16; Pixel 9 Pro Build/CP1A.260405.005; wv) AppleWebKit/537.36 (KHTML, like Gecko) Version/4.0 Chrome/147.0.7727.55 Mobile Safari/537.36","394","719","420","","null","<div style=""font-size:60px;"">+</div>","null","fixation","","","","","","","","","","","",""
"html-button-response","35","63599","0.0-2.0-1.16","1032","26","pre","9","afternoon","2026-04-15","2026-04-27","2026-04-23T22:47:13.081Z","Mozilla/5.0 (Linux; Android 16; Pixel 9 Pro Build/CP1A.260405.005; wv) AppleWebKit/537.36 (KHTML, like Gecko) Version/4.0 Chrome/147.0.7727.55 Mobile Safari/537.36","394","719","420","","4270","<div class=""prompt"" style=""font-size:24px; margin-bottom:20px;"">Which word describes you more?</div>","0","pairing","17","degenerate","sloppy","NegNeg","49","2","negative","negative","47","degenerate","left","true"
"html-keyboard-response","36","64403","0.0-2.0-0.17","1032","26","pre","9","afternoon","2026-04-15","2026-04-27","2026-04-23T22:47:13.081Z","Mozilla/5.0 (Linux; Android 16; Pixel 9 Pro Build/CP1A.260405.005; wv) AppleWebKit/537.36 (KHTML, like Gecko) Version/4.0 Chrome/147.0.7727.55 Mobile Safari/537.36","394","719","420","","null","<div style=""font-size:60px;"">+</div>","null","fixation","","","","","","","","","","","",""
"html-button-response","37","66392","0.0-2.0-1.17","1032","26","pre","9","afternoon","2026-04-15","2026-04-27","2026-04-23T22:47:13.081Z","Mozilla/5.0 (Linux; Android 16; Pixel 9 Pro Build/CP1A.260405.005; wv) AppleWebKit/537.36 (KHTML, like Gecko) Version/4.0 Chrome/147.0.7727.55 Mobile Safari/537.36","394","719","420","","1986","<div class=""prompt"" style=""font-size:24px; margin-bottom:20px;"">Which word describes you more?</div>","1","pairing","18","awkward","energetic","PosNeg","60","23","negative","positive","37","energetic","right","true"
"html-keyboard-response","38","67196","0.0-2.0-0.18","1032","26","pre","9","afternoon","2026-04-15","2026-04-27","2026-04-23T22:47:13.081Z","Mozilla/5.0 (Linux; Android 16; Pixel 9 Pro Build/CP1A.260405.005; wv) AppleWebKit/537.36 (KHTML, like Gecko) Version/4.0 Chrome/147.0.7727.55 Mobile Safari/537.36","394","719","420","","null","<div style=""font-size:60px;"">+</div>","null","fixation","","","","","","","","","","","",""
"html-button-response","39","68979","0.0-2.0-1.18","1032","26","pre","9","afternoon","2026-04-15","2026-04-27","2026-04-23T22:47:13.081Z","Mozilla/5.0 (Linux; Android 16; Pixel 9 Pro Build/CP1A.260405.005; wv) AppleWebKit/537.36 (KHTML, like Gecko) Version/4.0 Chrome/147.0.7727.55 Mobile Safari/537.36","394","719","420","","1776","<div class=""prompt"" style=""font-size:24px; margin-bottom:20px;"">Which word describes you more?</div>","1","pairing","19","friend","spontaneous","PosPos","100","18","positive","positive","82","spontaneous","right","true"
"html-keyboard-response","40","69784","0.0-2.0-0.19","1032","26","pre","9","afternoon","2026-04-15","2026-04-27","2026-04-23T22:47:13.081Z","Mozilla/5.0 (Linux; Android 16; Pixel 9 Pro Build/CP1A.260405.005; wv) AppleWebKit/537.36 (KHTML, like Gecko) Version/4.0 Chrome/147.0.7727.55 Mobile Safari/537.36","394","719","420","","null","<div style=""font-size:60px;"">+</div>","null","fixation","","","","","","","","","","","",""
"html-button-response","41","71806","0.0-2.0-1.19","1032","26","pre","9","afternoon","2026-04-15","2026-04-27","2026-04-23T22:47:13.081Z","Mozilla/5.0 (Linux; Android 16; Pixel 9 Pro Build/CP1A.260405.005; wv) AppleWebKit/537.36 (KHTML, like Gecko) Version/4.0 Chrome/147.0.7727.55 Mobile Safari/537.36","394","719","420","","2015","<div class=""prompt"" style=""font-size:24px; margin-bottom:20px;"">Which word describes you more?</div>","0","pairing","20","honest","irritating","PosNeg","96","5","positive","negative","91","honest","left","true"
"html-keyboard-response","42","72609","0.0-2.0-0.20","1032","26","pre","9","afternoon","2026-04-15","2026-04-27","2026-04-23T22:47:13.081Z","Mozilla/5.0 (Linux; Android 16; Pixel 9 Pro Build/CP1A.260405.005; wv) AppleWebKit/537.36 (KHTML, like Gecko) Version/4.0 Chrome/147.0.7727.55 Mobile Safari/537.36","394","719","420","","null","<div style=""font-size:60px;"">+</div>","null","fixation","","","","","","","","","","","",""
"html-button-response","43","73640","0.0-2.0-1.20","1032","26","pre","9","afternoon","2026-04-15","2026-04-27","2026-04-23T22:47:13.081Z","Mozilla/5.0 (Linux; Android 16; Pixel 9 Pro Build/CP1A.260405.005; wv) AppleWebKit/537.36 (KHTML, like Gecko) Version/4.0 Chrome/147.0.7727.55 Mobile Safari/537.36","394","719","420","","1024","<div class=""prompt"" style=""font-size:24px; margin-bottom:20px;"">Which word describes you more?</div>","1","pairing","21","menace","attractive","PosNeg","0","88","negative","positive","88","attractive","right","true"
"html-keyboard-response","44","74442","0.0-2.0-0.21","1032","26","pre","9","afternoon","2026-04-15","2026-04-27","2026-04-23T22:47:13.081Z","Mozilla/5.0 (Linux; Android 16; Pixel 9 Pro Build/CP1A.260405.005; wv) AppleWebKit/537.36 (KHTML, like Gecko) Version/4.0 Chrome/147.0.7727.55 Mobile Safari/537.36","394","719","420","","null","<div style=""font-size:60px;"">+</div>","null","fixation","","","","","","","","","","","",""
"html-button-response","45","75681","0.0-2.0-1.21","1032","26","pre","9","afternoon","2026-04-15","2026-04-27","2026-04-23T22:47:13.081Z","Mozilla/5.0 (Linux; Android 16; Pixel 9 Pro Build/CP1A.260405.005; wv) AppleWebKit/537.36 (KHTML, like Gecko) Version/4.0 Chrome/147.0.7727.55 Mobile Safari/537.36","394","719","420","","1233","<div class=""prompt"" style=""font-size:24px; margin-bottom:20px;"">Which word describes you more?</div>","1","pairing","22","gentle","idealistic","PosPos","35","90","positive","positive","55","idealistic","right","true"
"html-keyboard-response","46","76486","0.0-2.0-0.22","1032","26","pre","9","afternoon","2026-04-15","2026-04-27","2026-04-23T22:47:13.081Z","Mozilla/5.0 (Linux; Android 16; Pixel 9 Pro Build/CP1A.260405.005; wv) AppleWebKit/537.36 (KHTML, like Gecko) Version/4.0 Chrome/147.0.7727.55 Mobile Safari/537.36","394","719","420","","null","<div style=""font-size:60px;"">+</div>","null","fixation","","","","","","","","","","","",""
"html-button-response","47","78415","0.0-2.0-1.22","1032","26","pre","9","afternoon","2026-04-15","2026-04-27","2026-04-23T22:47:13.081Z","Mozilla/5.0 (Linux; Android 16; Pixel 9 Pro Build/CP1A.260405.005; wv) AppleWebKit/537.36 (KHTML, like Gecko) Version/4.0 Chrome/147.0.7727.55 Mobile Safari/537.36","394","719","420","","1922","<div class=""prompt"" style=""font-size:24px; margin-bottom:20px;"">Which word describes you more?</div>","0","pairing","23","credible","alluring","PosPos","100","76","positive","positive","24","credible","left","true"
"html-keyboard-response","48","79219","0.0-2.0-0.23","1032","26","pre","9","afternoon","2026-04-15","2026-04-27","2026-04-23T22:47:13.081Z","Mozilla/5.0 (Linux; Android 16; Pixel 9 Pro Build/CP1A.260405.005; wv) AppleWebKit/537.36 (KHTML, like Gecko) Version/4.0 Chrome/147.0.7727.55 Mobile Safari/537.36","394","719","420","","null","<div style=""font-size:60px;"">+</div>","null","fixation","","","","","","","","","","","",""
"html-button-response","49","80317","0.0-2.0-1.23","1032","26","pre","9","afternoon","2026-04-15","2026-04-27","2026-04-23T22:47:13.081Z","Mozilla/5.0 (Linux; Android 16; Pixel 9 Pro Build/CP1A.260405.005; wv) AppleWebKit/537.36 (KHTML, like Gecko) Version/4.0 Chrome/147.0.7727.55 Mobile Safari/537.36","394","719","420","","1091","<div class=""prompt"" style=""font-size:24px; margin-bottom:20px;"">Which word describes you more?</div>","1","pairing","24","unfaithful","graceful","PosNeg","19","63","negative","positive","44","graceful","right","true"
"instructions","50","81022","0.0-3.0","1032","26","pre","9","afternoon","2026-04-15","2026-04-27","2026-04-23T22:47:13.081Z","Mozilla/5.0 (Linux; Android 16; Pixel 9 Pro Build/CP1A.260405.005; wv) AppleWebKit/537.36 (KHTML, like Gecko) Version/4.0 Chrome/147.0.7727.55 Mobile Safari/537.36","394","719","420","[{""page_index"":0,""viewing_time"":701}]","703","","","","","","","","","","","","","","",""
