"trial_type","trial_index","time_elapsed","internal_node_id","PUNS_ID","session_number","session_phase","session_day","session_slot","ema_start_date","ema_post_start_date","experiment_start","browser","screen_width","screen_height","timezone_offset","view_history","rt","stimulus","response","which_experiment_phase","trial_number","left_word","right_word","valence","left_base_rating","right_base_rating","left_valence","right_valence","abs_diff","participant_response","chosen_side","valid_response"
"pavlovia","0","2549","0.0-0.0","1017","40","post","4","morning","2026-02-16","2026-02-28","2026-03-03T19:14:13.292Z","Mozilla/5.0 (iPhone; CPU iPhone OS 18_7 like Mac OS X) AppleWebKit/605.1.15 (KHTML, like Gecko) Mobile/15E148","370","644","480","","","","","","","","","","","","","","","","",""
"instructions","1","5097","0.0-1.0","1017","40","post","4","morning","2026-02-16","2026-02-28","2026-03-03T19:14:13.292Z","Mozilla/5.0 (iPhone; CPU iPhone OS 18_7 like Mac OS X) AppleWebKit/605.1.15 (KHTML, like Gecko) Mobile/15E148","370","644","480","[{""page_index"":0,""viewing_time"":610},{""page_index"":1,""viewing_time"":533},{""page_index"":2,""viewing_time"":818},{""page_index"":3,""viewing_time"":583}]","2545","","","","","","","","","","","","","","",""
"html-keyboard-response","2","5900","0.0-2.0-0.0","1017","40","post","4","morning","2026-02-16","2026-02-28","2026-03-03T19:14:13.292Z","Mozilla/5.0 (iPhone; CPU iPhone OS 18_7 like Mac OS X) AppleWebKit/605.1.15 (KHTML, like Gecko) Mobile/15E148","370","644","480","","null","<div style=""font-size:60px;"">+</div>","null","fixation","","","","","","","","","","","",""
"html-button-response","3","6997","0.0-2.0-1.0","1017","40","post","4","morning","2026-02-16","2026-02-28","2026-03-03T19:14:13.292Z","Mozilla/5.0 (iPhone; CPU iPhone OS 18_7 like Mac OS X) AppleWebKit/605.1.15 (KHTML, like Gecko) Mobile/15E148","370","644","480","","1093","<div class=""prompt"" style=""font-size:24px; margin-bottom:20px;"">Which word describes you more?</div>","1","pairing","1","alluring","grateful","PosPos","17","100","positive","positive","83","grateful","right","true"
"html-keyboard-response","4","7799","0.0-2.0-0.1","1017","40","post","4","morning","2026-02-16","2026-02-28","2026-03-03T19:14:13.292Z","Mozilla/5.0 (iPhone; CPU iPhone OS 18_7 like Mac OS X) AppleWebKit/605.1.15 (KHTML, like Gecko) Mobile/15E148","370","644","480","","null","<div style=""font-size:60px;"">+</div>","null","fixation","","","","","","","","","","","",""
"html-button-response","5","9046","0.0-2.0-1.1","1017","40","post","4","morning","2026-02-16","2026-02-28","2026-03-03T19:14:13.292Z","Mozilla/5.0 (iPhone; CPU iPhone OS 18_7 like Mac OS X) AppleWebKit/605.1.15 (KHTML, like Gecko) Mobile/15E148","370","644","480","","1244","<div class=""prompt"" style=""font-size:24px; margin-bottom:20px;"">Which word describes you more?</div>","0","pairing","2","charming","slob","PosNeg","76","0","positive","negative","76","charming","left","true"
"html-keyboard-response","6","9848","0.0-2.0-0.2","1017","40","post","4","morning","2026-02-16","2026-02-28","2026-03-03T19:14:13.292Z","Mozilla/5.0 (iPhone; CPU iPhone OS 18_7 like Mac OS X) AppleWebKit/605.1.15 (KHTML, like Gecko) Mobile/15E148","370","644","480","","null","<div style=""font-size:60px;"">+</div>","null","fixation","","","","","","","","","","","",""
"html-button-response","7","11128","0.0-2.0-1.2","1017","40","post","4","morning","2026-02-16","2026-02-28","2026-03-03T19:14:13.292Z","Mozilla/5.0 (iPhone; CPU iPhone OS 18_7 like Mac OS X) AppleWebKit/605.1.15 (KHTML, like Gecko) Mobile/15E148","370","644","480","","1278","<div class=""prompt"" style=""font-size:24px; margin-bottom:20px;"">Which word describes you more?</div>","0","pairing","3","inadequate","creep","NegNeg","33","0","negative","negative","33","inadequate","left","true"
"html-keyboard-response","8","11930","0.0-2.0-0.3","1017","40","post","4","morning","2026-02-16","2026-02-28","2026-03-03T19:14:13.292Z","Mozilla/5.0 (iPhone; CPU iPhone OS 18_7 like Mac OS X) AppleWebKit/605.1.15 (KHTML, like Gecko) Mobile/15E148","370","644","480","","null","<div style=""font-size:60px;"">+</div>","null","fixation","","","","","","","","","","","",""
"html-button-response","9","12922","0.0-2.0-1.3","1017","40","post","4","morning","2026-02-16","2026-02-28","2026-03-03T19:14:13.292Z","Mozilla/5.0 (iPhone; CPU iPhone OS 18_7 like Mac OS X) AppleWebKit/605.1.15 (KHTML, like Gecko) Mobile/15E148","370","644","480","","990","<div class=""prompt"" style=""font-size:24px; margin-bottom:20px;"">Which word describes you more?</div>","1","pairing","4","liar","gentle","PosNeg","6","62","negative","positive","56","gentle","right","true"
"html-keyboard-response","10","13724","0.0-2.0-0.4","1017","40","post","4","morning","2026-02-16","2026-02-28","2026-03-03T19:14:13.292Z","Mozilla/5.0 (iPhone; CPU iPhone OS 18_7 like Mac OS X) AppleWebKit/605.1.15 (KHTML, like Gecko) Mobile/15E148","370","644","480","","null","<div style=""font-size:60px;"">+</div>","null","fixation","","","","","","","","","","","",""
"html-button-response","11","14933","0.0-2.0-1.4","1017","40","post","4","morning","2026-02-16","2026-02-28","2026-03-03T19:14:13.292Z","Mozilla/5.0 (iPhone; CPU iPhone OS 18_7 like Mac OS X) AppleWebKit/605.1.15 (KHTML, like Gecko) Mobile/15E148","370","644","480","","1205","<div class=""prompt"" style=""font-size:24px; margin-bottom:20px;"">Which word describes you more?</div>","0","pairing","5","anxious","worthless","NegNeg","48","0","negative","negative","48","anxious","left","true"
"html-keyboard-response","12","15735","0.0-2.0-0.5","1017","40","post","4","morning","2026-02-16","2026-02-28","2026-03-03T19:14:13.292Z","Mozilla/5.0 (iPhone; CPU iPhone OS 18_7 like Mac OS X) AppleWebKit/605.1.15 (KHTML, like Gecko) Mobile/15E148","370","644","480","","null","<div style=""font-size:60px;"">+</div>","null","fixation","","","","","","","","","","","",""
"html-button-response","13","17281","0.0-2.0-1.5","1017","40","post","4","morning","2026-02-16","2026-02-28","2026-03-03T19:14:13.292Z","Mozilla/5.0 (iPhone; CPU iPhone OS 18_7 like Mac OS X) AppleWebKit/605.1.15 (KHTML, like Gecko) Mobile/15E148","370","644","480","","1544","<div class=""prompt"" style=""font-size:24px; margin-bottom:20px;"">Which word describes you more?</div>","0","pairing","6","awkward","carefree","PosNeg","49","36","negative","positive","13","awkward","left","true"
"html-keyboard-response","14","18083","0.0-2.0-0.6","1017","40","post","4","morning","2026-02-16","2026-02-28","2026-03-03T19:14:13.292Z","Mozilla/5.0 (iPhone; CPU iPhone OS 18_7 like Mac OS X) AppleWebKit/605.1.15 (KHTML, like Gecko) Mobile/15E148","370","644","480","","null","<div style=""font-size:60px;"">+</div>","null","fixation","","","","","","","","","","","",""
"html-button-response","15","19606","0.0-2.0-1.6","1017","40","post","4","morning","2026-02-16","2026-02-28","2026-03-03T19:14:13.292Z","Mozilla/5.0 (iPhone; CPU iPhone OS 18_7 like Mac OS X) AppleWebKit/605.1.15 (KHTML, like Gecko) Mobile/15E148","370","644","480","","1521","<div class=""prompt"" style=""font-size:24px; margin-bottom:20px;"">Which word describes you more?</div>","1","pairing","7","terrible","problematic","NegNeg","15","0","negative","negative","15","problematic","right","true"
"html-keyboard-response","16","20408","0.0-2.0-0.7","1017","40","post","4","morning","2026-02-16","2026-02-28","2026-03-03T19:14:13.292Z","Mozilla/5.0 (iPhone; CPU iPhone OS 18_7 like Mac OS X) AppleWebKit/605.1.15 (KHTML, like Gecko) Mobile/15E148","370","644","480","","null","<div style=""font-size:60px;"">+</div>","null","fixation","","","","","","","","","","","",""
"html-button-response","17","21457","0.0-2.0-1.7","1017","40","post","4","morning","2026-02-16","2026-02-28","2026-03-03T19:14:13.292Z","Mozilla/5.0 (iPhone; CPU iPhone OS 18_7 like Mac OS X) AppleWebKit/605.1.15 (KHTML, like Gecko) Mobile/15E148","370","644","480","","1046","<div class=""prompt"" style=""font-size:24px; margin-bottom:20px;"">Which word describes you more?</div>","1","pairing","8","disloyal","champion","PosNeg","1","79","negative","positive","78","champion","right","true"
"html-keyboard-response","18","22259","0.0-2.0-0.8","1017","40","post","4","morning","2026-02-16","2026-02-28","2026-03-03T19:14:13.292Z","Mozilla/5.0 (iPhone; CPU iPhone OS 18_7 like Mac OS X) AppleWebKit/605.1.15 (KHTML, like Gecko) Mobile/15E148","370","644","480","","null","<div style=""font-size:60px;"">+</div>","null","fixation","","","","","","","","","","","",""
"html-button-response","19","23556","0.0-2.0-1.8","1017","40","post","4","morning","2026-02-16","2026-02-28","2026-03-03T19:14:13.292Z","Mozilla/5.0 (iPhone; CPU iPhone OS 18_7 like Mac OS X) AppleWebKit/605.1.15 (KHTML, like Gecko) Mobile/15E148","370","644","480","","1296","<div class=""prompt"" style=""font-size:24px; margin-bottom:20px;"">Which word describes you more?</div>","1","pairing","9","legendary","energetic","PosPos","48","88","positive","positive","40","energetic","right","true"
"html-keyboard-response","20","24358","0.0-2.0-0.9","1017","40","post","4","morning","2026-02-16","2026-02-28","2026-03-03T19:14:13.292Z","Mozilla/5.0 (iPhone; CPU iPhone OS 18_7 like Mac OS X) AppleWebKit/605.1.15 (KHTML, like Gecko) Mobile/15E148","370","644","480","","null","<div style=""font-size:60px;"">+</div>","null","fixation","","","","","","","","","","","",""
"html-button-response","21","25349","0.0-2.0-1.9","1017","40","post","4","morning","2026-02-16","2026-02-28","2026-03-03T19:14:13.292Z","Mozilla/5.0 (iPhone; CPU iPhone OS 18_7 like Mac OS X) AppleWebKit/605.1.15 (KHTML, like Gecko) Mobile/15E148","370","644","480","","990","<div class=""prompt"" style=""font-size:24px; margin-bottom:20px;"">Which word describes you more?</div>","1","pairing","10","unwanted","seeker","PosNeg","0","100","negative","positive","100","seeker","right","true"
"html-keyboard-response","22","26151","0.0-2.0-0.10","1017","40","post","4","morning","2026-02-16","2026-02-28","2026-03-03T19:14:13.292Z","Mozilla/5.0 (iPhone; CPU iPhone OS 18_7 like Mac OS X) AppleWebKit/605.1.15 (KHTML, like Gecko) Mobile/15E148","370","644","480","","null","<div style=""font-size:60px;"">+</div>","null","fixation","","","","","","","","","","","",""
"html-button-response","23","27749","0.0-2.0-1.10","1017","40","post","4","morning","2026-02-16","2026-02-28","2026-03-03T19:14:13.292Z","Mozilla/5.0 (iPhone; CPU iPhone OS 18_7 like Mac OS X) AppleWebKit/605.1.15 (KHTML, like Gecko) Mobile/15E148","370","644","480","","1597","<div class=""prompt"" style=""font-size:24px; margin-bottom:20px;"">Which word describes you more?</div>","0","pairing","11","companion","graceful","PosPos","100","51","positive","positive","49","companion","left","true"
"html-keyboard-response","24","28551","0.0-2.0-0.11","1017","40","post","4","morning","2026-02-16","2026-02-28","2026-03-03T19:14:13.292Z","Mozilla/5.0 (iPhone; CPU iPhone OS 18_7 like Mac OS X) AppleWebKit/605.1.15 (KHTML, like Gecko) Mobile/15E148","370","644","480","","null","<div style=""font-size:60px;"">+</div>","null","fixation","","","","","","","","","","","",""
"html-button-response","25","29799","0.0-2.0-1.11","1017","40","post","4","morning","2026-02-16","2026-02-28","2026-03-03T19:14:13.292Z","Mozilla/5.0 (iPhone; CPU iPhone OS 18_7 like Mac OS X) AppleWebKit/605.1.15 (KHTML, like Gecko) Mobile/15E148","370","644","480","","1247","<div class=""prompt"" style=""font-size:24px; margin-bottom:20px;"">Which word describes you more?</div>","1","pairing","12","shameful","awkward","NegNeg","8","49","negative","negative","41","awkward","right","true"
"html-keyboard-response","26","30601","0.0-2.0-0.12","1017","40","post","4","morning","2026-02-16","2026-02-28","2026-03-03T19:14:13.292Z","Mozilla/5.0 (iPhone; CPU iPhone OS 18_7 like Mac OS X) AppleWebKit/605.1.15 (KHTML, like Gecko) Mobile/15E148","370","644","480","","null","<div style=""font-size:60px;"">+</div>","null","fixation","","","","","","","","","","","",""
"html-button-response","27","32083","0.0-2.0-1.12","1017","40","post","4","morning","2026-02-16","2026-02-28","2026-03-03T19:14:13.292Z","Mozilla/5.0 (iPhone; CPU iPhone OS 18_7 like Mac OS X) AppleWebKit/605.1.15 (KHTML, like Gecko) Mobile/15E148","370","644","480","","1480","<div class=""prompt"" style=""font-size:24px; margin-bottom:20px;"">Which word describes you more?</div>","0","pairing","13","graceful","traitor","PosNeg","51","3","positive","negative","48","graceful","left","true"
"html-keyboard-response","28","32885","0.0-2.0-0.13","1017","40","post","4","morning","2026-02-16","2026-02-28","2026-03-03T19:14:13.292Z","Mozilla/5.0 (iPhone; CPU iPhone OS 18_7 like Mac OS X) AppleWebKit/605.1.15 (KHTML, like Gecko) Mobile/15E148","370","644","480","","null","<div style=""font-size:60px;"">+</div>","null","fixation","","","","","","","","","","","",""
"html-button-response","29","34009","0.0-2.0-1.13","1017","40","post","4","morning","2026-02-16","2026-02-28","2026-03-03T19:14:13.292Z","Mozilla/5.0 (iPhone; CPU iPhone OS 18_7 like Mac OS X) AppleWebKit/605.1.15 (KHTML, like Gecko) Mobile/15E148","370","644","480","","1122","<div class=""prompt"" style=""font-size:24px; margin-bottom:20px;"">Which word describes you more?</div>","1","pairing","14","anxious","excited","PosNeg","48","71","negative","positive","23","excited","right","true"
"html-keyboard-response","30","34811","0.0-2.0-0.14","1017","40","post","4","morning","2026-02-16","2026-02-28","2026-03-03T19:14:13.292Z","Mozilla/5.0 (iPhone; CPU iPhone OS 18_7 like Mac OS X) AppleWebKit/605.1.15 (KHTML, like Gecko) Mobile/15E148","370","644","480","","null","<div style=""font-size:60px;"">+</div>","null","fixation","","","","","","","","","","","",""
"html-button-response","31","36325","0.0-2.0-1.14","1017","40","post","4","morning","2026-02-16","2026-02-28","2026-03-03T19:14:13.292Z","Mozilla/5.0 (iPhone; CPU iPhone OS 18_7 like Mac OS X) AppleWebKit/605.1.15 (KHTML, like Gecko) Mobile/15E148","370","644","480","","1513","<div class=""prompt"" style=""font-size:24px; margin-bottom:20px;"">Which word describes you more?</div>","0","pairing","15","hesitant","bully","NegNeg","16","0","negative","negative","16","hesitant","left","true"
"html-keyboard-response","32","37127","0.0-2.0-0.15","1017","40","post","4","morning","2026-02-16","2026-02-28","2026-03-03T19:14:13.292Z","Mozilla/5.0 (iPhone; CPU iPhone OS 18_7 like Mac OS X) AppleWebKit/605.1.15 (KHTML, like Gecko) Mobile/15E148","370","644","480","","null","<div style=""font-size:60px;"">+</div>","null","fixation","","","","","","","","","","","",""
"html-button-response","33","38310","0.0-2.0-1.15","1017","40","post","4","morning","2026-02-16","2026-02-28","2026-03-03T19:14:13.292Z","Mozilla/5.0 (iPhone; CPU iPhone OS 18_7 like Mac OS X) AppleWebKit/605.1.15 (KHTML, like Gecko) Mobile/15E148","370","644","480","","1181","<div class=""prompt"" style=""font-size:24px; margin-bottom:20px;"">Which word describes you more?</div>","1","pairing","16","sophisticated","smiley","PosPos","88","100","positive","positive","12","smiley","right","true"
"html-keyboard-response","34","39112","0.0-2.0-0.16","1017","40","post","4","morning","2026-02-16","2026-02-28","2026-03-03T19:14:13.292Z","Mozilla/5.0 (iPhone; CPU iPhone OS 18_7 like Mac OS X) AppleWebKit/605.1.15 (KHTML, like Gecko) Mobile/15E148","370","644","480","","null","<div style=""font-size:60px;"">+</div>","null","fixation","","","","","","","","","","","",""
"html-button-response","35","40126","0.0-2.0-1.16","1017","40","post","4","morning","2026-02-16","2026-02-28","2026-03-03T19:14:13.292Z","Mozilla/5.0 (iPhone; CPU iPhone OS 18_7 like Mac OS X) AppleWebKit/605.1.15 (KHTML, like Gecko) Mobile/15E148","370","644","480","","1012","<div class=""prompt"" style=""font-size:24px; margin-bottom:20px;"">Which word describes you more?</div>","1","pairing","17","pest","coward","NegNeg","0","4","negative","negative","4","coward","right","true"
"html-keyboard-response","36","40928","0.0-2.0-0.17","1017","40","post","4","morning","2026-02-16","2026-02-28","2026-03-03T19:14:13.292Z","Mozilla/5.0 (iPhone; CPU iPhone OS 18_7 like Mac OS X) AppleWebKit/605.1.15 (KHTML, like Gecko) Mobile/15E148","370","644","480","","null","<div style=""font-size:60px;"">+</div>","null","fixation","","","","","","","","","","","",""
"html-button-response","37","42002","0.0-2.0-1.17","1017","40","post","4","morning","2026-02-16","2026-02-28","2026-03-03T19:14:13.292Z","Mozilla/5.0 (iPhone; CPU iPhone OS 18_7 like Mac OS X) AppleWebKit/605.1.15 (KHTML, like Gecko) Mobile/15E148","370","644","480","","1073","<div class=""prompt"" style=""font-size:24px; margin-bottom:20px;"">Which word describes you more?</div>","1","pairing","18","cruel","merciful","PosNeg","0","60","negative","positive","60","merciful","right","true"
"html-keyboard-response","38","42804","0.0-2.0-0.18","1017","40","post","4","morning","2026-02-16","2026-02-28","2026-03-03T19:14:13.292Z","Mozilla/5.0 (iPhone; CPU iPhone OS 18_7 like Mac OS X) AppleWebKit/605.1.15 (KHTML, like Gecko) Mobile/15E148","370","644","480","","null","<div style=""font-size:60px;"">+</div>","null","fixation","","","","","","","","","","","",""
"html-button-response","39","43835","0.0-2.0-1.18","1017","40","post","4","morning","2026-02-16","2026-02-28","2026-03-03T19:14:13.292Z","Mozilla/5.0 (iPhone; CPU iPhone OS 18_7 like Mac OS X) AppleWebKit/605.1.15 (KHTML, like Gecko) Mobile/15E148","370","644","480","","1030","<div class=""prompt"" style=""font-size:24px; margin-bottom:20px;"">Which word describes you more?</div>","0","pairing","19","authentic","alluring","PosPos","85","17","positive","positive","68","authentic","left","true"
"html-keyboard-response","40","44637","0.0-2.0-0.19","1017","40","post","4","morning","2026-02-16","2026-02-28","2026-03-03T19:14:13.292Z","Mozilla/5.0 (iPhone; CPU iPhone OS 18_7 like Mac OS X) AppleWebKit/605.1.15 (KHTML, like Gecko) Mobile/15E148","370","644","480","","null","<div style=""font-size:60px;"">+</div>","null","fixation","","","","","","","","","","","",""
"html-button-response","41","45594","0.0-2.0-1.19","1017","40","post","4","morning","2026-02-16","2026-02-28","2026-03-03T19:14:13.292Z","Mozilla/5.0 (iPhone; CPU iPhone OS 18_7 like Mac OS X) AppleWebKit/605.1.15 (KHTML, like Gecko) Mobile/15E148","370","644","480","","955","<div class=""prompt"" style=""font-size:24px; margin-bottom:20px;"">Which word describes you more?</div>","0","pairing","20","cooperative","gloomy","PosNeg","92","0","positive","negative","92","cooperative","left","true"
"html-keyboard-response","42","46396","0.0-2.0-0.20","1017","40","post","4","morning","2026-02-16","2026-02-28","2026-03-03T19:14:13.292Z","Mozilla/5.0 (iPhone; CPU iPhone OS 18_7 like Mac OS X) AppleWebKit/605.1.15 (KHTML, like Gecko) Mobile/15E148","370","644","480","","null","<div style=""font-size:60px;"">+</div>","null","fixation","","","","","","","","","","","",""
"html-button-response","43","47694","0.0-2.0-1.20","1017","40","post","4","morning","2026-02-16","2026-02-28","2026-03-03T19:14:13.292Z","Mozilla/5.0 (iPhone; CPU iPhone OS 18_7 like Mac OS X) AppleWebKit/605.1.15 (KHTML, like Gecko) Mobile/15E148","370","644","480","","1297","<div class=""prompt"" style=""font-size:24px; margin-bottom:20px;"">Which word describes you more?</div>","0","pairing","21","gentle","awkward","PosNeg","62","49","positive","negative","13","gentle","left","true"
"html-keyboard-response","44","48496","0.0-2.0-0.21","1017","40","post","4","morning","2026-02-16","2026-02-28","2026-03-03T19:14:13.292Z","Mozilla/5.0 (iPhone; CPU iPhone OS 18_7 like Mac OS X) AppleWebKit/605.1.15 (KHTML, like Gecko) Mobile/15E148","370","644","480","","null","<div style=""font-size:60px;"">+</div>","null","fixation","","","","","","","","","","","",""
"html-button-response","45","49993","0.0-2.0-1.21","1017","40","post","4","morning","2026-02-16","2026-02-28","2026-03-03T19:14:13.292Z","Mozilla/5.0 (iPhone; CPU iPhone OS 18_7 like Mac OS X) AppleWebKit/605.1.15 (KHTML, like Gecko) Mobile/15E148","370","644","480","","1496","<div class=""prompt"" style=""font-size:24px; margin-bottom:20px;"">Which word describes you more?</div>","1","pairing","22","alluring","inadequate","PosNeg","17","33","positive","negative","16","inadequate","right","true"
"html-keyboard-response","46","50795","0.0-2.0-0.22","1017","40","post","4","morning","2026-02-16","2026-02-28","2026-03-03T19:14:13.292Z","Mozilla/5.0 (iPhone; CPU iPhone OS 18_7 like Mac OS X) AppleWebKit/605.1.15 (KHTML, like Gecko) Mobile/15E148","370","644","480","","null","<div style=""font-size:60px;"">+</div>","null","fixation","","","","","","","","","","","",""
"html-button-response","47","52278","0.0-2.0-1.22","1017","40","post","4","morning","2026-02-16","2026-02-28","2026-03-03T19:14:13.292Z","Mozilla/5.0 (iPhone; CPU iPhone OS 18_7 like Mac OS X) AppleWebKit/605.1.15 (KHTML, like Gecko) Mobile/15E148","370","644","480","","1480","<div class=""prompt"" style=""font-size:24px; margin-bottom:20px;"">Which word describes you more?</div>","1","pairing","23","sophisticated","pleased","PosPos","88","60","positive","positive","28","pleased","right","true"
"html-keyboard-response","48","53080","0.0-2.0-0.23","1017","40","post","4","morning","2026-02-16","2026-02-28","2026-03-03T19:14:13.292Z","Mozilla/5.0 (iPhone; CPU iPhone OS 18_7 like Mac OS X) AppleWebKit/605.1.15 (KHTML, like Gecko) Mobile/15E148","370","644","480","","null","<div style=""font-size:60px;"">+</div>","null","fixation","","","","","","","","","","","",""
"html-button-response","49","54193","0.0-2.0-1.23","1017","40","post","4","morning","2026-02-16","2026-02-28","2026-03-03T19:14:13.292Z","Mozilla/5.0 (iPhone; CPU iPhone OS 18_7 like Mac OS X) AppleWebKit/605.1.15 (KHTML, like Gecko) Mobile/15E148","370","644","480","","1112","<div class=""prompt"" style=""font-size:24px; margin-bottom:20px;"">Which word describes you more?</div>","1","pairing","24","hateful","achiever","PosNeg","0","90","negative","positive","90","achiever","right","true"
"instructions","50","54944","0.0-3.0","1017","40","post","4","morning","2026-02-16","2026-02-28","2026-03-03T19:14:13.292Z","Mozilla/5.0 (iPhone; CPU iPhone OS 18_7 like Mac OS X) AppleWebKit/605.1.15 (KHTML, like Gecko) Mobile/15E148","370","644","480","[{""page_index"":0,""viewing_time"":749}]","750","","","","","","","","","","","","","","",""
