"trial_type","trial_index","time_elapsed","internal_node_id","PUNS_ID","session_number","session_phase","session_day","session_slot","ema_start_date","ema_post_start_date","experiment_start","browser","screen_width","screen_height","timezone_offset","view_history","rt","stimulus","response","which_experiment_phase","trial_number","left_word","right_word","valence","left_base_rating","right_base_rating","left_valence","right_valence","abs_diff","participant_response","chosen_side","valid_response"
"pavlovia","0","2102","0.0-0.0","1060","20","pre","7","afternoon","2026-04-15","2026-04-28","2026-04-21T16:26:36.391Z","Mozilla/5.0 (iPhone; CPU iPhone OS 18_7 like Mac OS X) AppleWebKit/605.1.15 (KHTML, like Gecko) Mobile/15E148","358","632","240","","","","","","","","","","","","","","","","",""
"instructions","1","5338","0.0-1.0","1060","20","pre","7","afternoon","2026-04-15","2026-04-28","2026-04-21T16:26:36.391Z","Mozilla/5.0 (iPhone; CPU iPhone OS 18_7 like Mac OS X) AppleWebKit/605.1.15 (KHTML, like Gecko) Mobile/15E148","358","632","240","[{""page_index"":0,""viewing_time"":767},{""page_index"":1,""viewing_time"":533},{""page_index"":2,""viewing_time"":1387},{""page_index"":3,""viewing_time"":540}]","3228","","","","","","","","","","","","","","",""
"html-keyboard-response","2","6142","0.0-2.0-0.0","1060","20","pre","7","afternoon","2026-04-15","2026-04-28","2026-04-21T16:26:36.391Z","Mozilla/5.0 (iPhone; CPU iPhone OS 18_7 like Mac OS X) AppleWebKit/605.1.15 (KHTML, like Gecko) Mobile/15E148","358","632","240","","null","<div style=""font-size:60px;"">+</div>","null","fixation","","","","","","","","","","","",""
"html-button-response","3","7600","0.0-2.0-1.0","1060","20","pre","7","afternoon","2026-04-15","2026-04-28","2026-04-21T16:26:36.391Z","Mozilla/5.0 (iPhone; CPU iPhone OS 18_7 like Mac OS X) AppleWebKit/605.1.15 (KHTML, like Gecko) Mobile/15E148","358","632","240","","1450","<div class=""prompt"" style=""font-size:24px; margin-bottom:20px;"">Which word describes you more?</div>","1","pairing","1","fool","carefree","PosNeg","68","69","negative","positive","1","carefree","right","true"
"html-keyboard-response","4","8403","0.0-2.0-0.1","1060","20","pre","7","afternoon","2026-04-15","2026-04-28","2026-04-21T16:26:36.391Z","Mozilla/5.0 (iPhone; CPU iPhone OS 18_7 like Mac OS X) AppleWebKit/605.1.15 (KHTML, like Gecko) Mobile/15E148","358","632","240","","null","<div style=""font-size:60px;"">+</div>","null","fixation","","","","","","","","","","","",""
"html-button-response","5","9432","0.0-2.0-1.1","1060","20","pre","7","afternoon","2026-04-15","2026-04-28","2026-04-21T16:26:36.391Z","Mozilla/5.0 (iPhone; CPU iPhone OS 18_7 like Mac OS X) AppleWebKit/605.1.15 (KHTML, like Gecko) Mobile/15E148","358","632","240","","1025","<div class=""prompt"" style=""font-size:24px; margin-bottom:20px;"">Which word describes you more?</div>","0","pairing","2","spirited","asset","PosPos","92","87","positive","positive","5","spirited","left","true"
"html-keyboard-response","6","10235","0.0-2.0-0.2","1060","20","pre","7","afternoon","2026-04-15","2026-04-28","2026-04-21T16:26:36.391Z","Mozilla/5.0 (iPhone; CPU iPhone OS 18_7 like Mac OS X) AppleWebKit/605.1.15 (KHTML, like Gecko) Mobile/15E148","358","632","240","","null","<div style=""font-size:60px;"">+</div>","null","fixation","","","","","","","","","","","",""
"html-button-response","7","13393","0.0-2.0-1.2","1060","20","pre","7","afternoon","2026-04-15","2026-04-28","2026-04-21T16:26:36.391Z","Mozilla/5.0 (iPhone; CPU iPhone OS 18_7 like Mac OS X) AppleWebKit/605.1.15 (KHTML, like Gecko) Mobile/15E148","358","632","240","","3156","<div class=""prompt"" style=""font-size:24px; margin-bottom:20px;"">Which word describes you more?</div>","1","pairing","3","insecure","decisive","PosNeg","60","18","negative","positive","42","decisive","right","true"
"html-keyboard-response","8","14195","0.0-2.0-0.3","1060","20","pre","7","afternoon","2026-04-15","2026-04-28","2026-04-21T16:26:36.391Z","Mozilla/5.0 (iPhone; CPU iPhone OS 18_7 like Mac OS X) AppleWebKit/605.1.15 (KHTML, like Gecko) Mobile/15E148","358","632","240","","null","<div style=""font-size:60px;"">+</div>","null","fixation","","","","","","","","","","","",""
"html-button-response","9","15422","0.0-2.0-1.3","1060","20","pre","7","afternoon","2026-04-15","2026-04-28","2026-04-21T16:26:36.391Z","Mozilla/5.0 (iPhone; CPU iPhone OS 18_7 like Mac OS X) AppleWebKit/605.1.15 (KHTML, like Gecko) Mobile/15E148","358","632","240","","1224","<div class=""prompt"" style=""font-size:24px; margin-bottom:20px;"">Which word describes you more?</div>","1","pairing","4","miserable","fun","PosNeg","0","97","negative","positive","97","fun","right","true"
"html-keyboard-response","10","16225","0.0-2.0-0.4","1060","20","pre","7","afternoon","2026-04-15","2026-04-28","2026-04-21T16:26:36.391Z","Mozilla/5.0 (iPhone; CPU iPhone OS 18_7 like Mac OS X) AppleWebKit/605.1.15 (KHTML, like Gecko) Mobile/15E148","358","632","240","","null","<div style=""font-size:60px;"">+</div>","null","fixation","","","","","","","","","","","",""
"html-button-response","11","17511","0.0-2.0-1.4","1060","20","pre","7","afternoon","2026-04-15","2026-04-28","2026-04-21T16:26:36.391Z","Mozilla/5.0 (iPhone; CPU iPhone OS 18_7 like Mac OS X) AppleWebKit/605.1.15 (KHTML, like Gecko) Mobile/15E148","358","632","240","","1284","<div class=""prompt"" style=""font-size:24px; margin-bottom:20px;"">Which word describes you more?</div>","1","pairing","5","flawless","fool","PosNeg","4","68","positive","negative","64","fool","right","true"
"html-keyboard-response","12","18314","0.0-2.0-0.5","1060","20","pre","7","afternoon","2026-04-15","2026-04-28","2026-04-21T16:26:36.391Z","Mozilla/5.0 (iPhone; CPU iPhone OS 18_7 like Mac OS X) AppleWebKit/605.1.15 (KHTML, like Gecko) Mobile/15E148","358","632","240","","null","<div style=""font-size:60px;"">+</div>","null","fixation","","","","","","","","","","","",""
"html-button-response","13","19454","0.0-2.0-1.5","1060","20","pre","7","afternoon","2026-04-15","2026-04-28","2026-04-21T16:26:36.391Z","Mozilla/5.0 (iPhone; CPU iPhone OS 18_7 like Mac OS X) AppleWebKit/605.1.15 (KHTML, like Gecko) Mobile/15E148","358","632","240","","1138","<div class=""prompt"" style=""font-size:24px; margin-bottom:20px;"">Which word describes you more?</div>","1","pairing","6","unforgivable","asset","PosNeg","49","87","negative","positive","38","asset","right","true"
"html-keyboard-response","14","20256","0.0-2.0-0.6","1060","20","pre","7","afternoon","2026-04-15","2026-04-28","2026-04-21T16:26:36.391Z","Mozilla/5.0 (iPhone; CPU iPhone OS 18_7 like Mac OS X) AppleWebKit/605.1.15 (KHTML, like Gecko) Mobile/15E148","358","632","240","","null","<div style=""font-size:60px;"">+</div>","null","fixation","","","","","","","","","","","",""
"html-button-response","15","21764","0.0-2.0-1.6","1060","20","pre","7","afternoon","2026-04-15","2026-04-28","2026-04-21T16:26:36.391Z","Mozilla/5.0 (iPhone; CPU iPhone OS 18_7 like Mac OS X) AppleWebKit/605.1.15 (KHTML, like Gecko) Mobile/15E148","358","632","240","","1504","<div class=""prompt"" style=""font-size:24px; margin-bottom:20px;"">Which word describes you more?</div>","1","pairing","7","failure","fool","NegNeg","4","68","negative","negative","64","fool","right","true"
"html-keyboard-response","16","22567","0.0-2.0-0.7","1060","20","pre","7","afternoon","2026-04-15","2026-04-28","2026-04-21T16:26:36.391Z","Mozilla/5.0 (iPhone; CPU iPhone OS 18_7 like Mac OS X) AppleWebKit/605.1.15 (KHTML, like Gecko) Mobile/15E148","358","632","240","","null","<div style=""font-size:60px;"">+</div>","null","fixation","","","","","","","","","","","",""
"html-button-response","17","24560","0.0-2.0-1.7","1060","20","pre","7","afternoon","2026-04-15","2026-04-28","2026-04-21T16:26:36.391Z","Mozilla/5.0 (iPhone; CPU iPhone OS 18_7 like Mac OS X) AppleWebKit/605.1.15 (KHTML, like Gecko) Mobile/15E148","358","632","240","","1988","<div class=""prompt"" style=""font-size:24px; margin-bottom:20px;"">Which word describes you more?</div>","0","pairing","8","knowledgeable","valued","PosPos","68","75","positive","positive","7","knowledgeable","left","true"
"html-keyboard-response","18","25362","0.0-2.0-0.8","1060","20","pre","7","afternoon","2026-04-15","2026-04-28","2026-04-21T16:26:36.391Z","Mozilla/5.0 (iPhone; CPU iPhone OS 18_7 like Mac OS X) AppleWebKit/605.1.15 (KHTML, like Gecko) Mobile/15E148","358","632","240","","null","<div style=""font-size:60px;"">+</div>","null","fixation","","","","","","","","","","","",""
"html-button-response","19","26831","0.0-2.0-1.8","1060","20","pre","7","afternoon","2026-04-15","2026-04-28","2026-04-21T16:26:36.391Z","Mozilla/5.0 (iPhone; CPU iPhone OS 18_7 like Mac OS X) AppleWebKit/605.1.15 (KHTML, like Gecko) Mobile/15E148","358","632","240","","1465","<div class=""prompt"" style=""font-size:24px; margin-bottom:20px;"">Which word describes you more?</div>","1","pairing","9","legendary","stingy","PosNeg","50","74","positive","negative","24","stingy","right","true"
"html-keyboard-response","20","27633","0.0-2.0-0.9","1060","20","pre","7","afternoon","2026-04-15","2026-04-28","2026-04-21T16:26:36.391Z","Mozilla/5.0 (iPhone; CPU iPhone OS 18_7 like Mac OS X) AppleWebKit/605.1.15 (KHTML, like Gecko) Mobile/15E148","358","632","240","","null","<div style=""font-size:60px;"">+</div>","null","fixation","","","","","","","","","","","",""
"html-button-response","21","29856","0.0-2.0-1.9","1060","20","pre","7","afternoon","2026-04-15","2026-04-28","2026-04-21T16:26:36.391Z","Mozilla/5.0 (iPhone; CPU iPhone OS 18_7 like Mac OS X) AppleWebKit/605.1.15 (KHTML, like Gecko) Mobile/15E148","358","632","240","","2220","<div class=""prompt"" style=""font-size:24px; margin-bottom:20px;"">Which word describes you more?</div>","0","pairing","10","hesitant","hopeless","NegNeg","68","2","negative","negative","66","hesitant","left","true"
"html-keyboard-response","22","30658","0.0-2.0-0.10","1060","20","pre","7","afternoon","2026-04-15","2026-04-28","2026-04-21T16:26:36.391Z","Mozilla/5.0 (iPhone; CPU iPhone OS 18_7 like Mac OS X) AppleWebKit/605.1.15 (KHTML, like Gecko) Mobile/15E148","358","632","240","","null","<div style=""font-size:60px;"">+</div>","null","fixation","","","","","","","","","","","",""
"html-button-response","23","32636","0.0-2.0-1.10","1060","20","pre","7","afternoon","2026-04-15","2026-04-28","2026-04-21T16:26:36.391Z","Mozilla/5.0 (iPhone; CPU iPhone OS 18_7 like Mac OS X) AppleWebKit/605.1.15 (KHTML, like Gecko) Mobile/15E148","358","632","240","","1976","<div class=""prompt"" style=""font-size:24px; margin-bottom:20px;"">Which word describes you more?</div>","0","pairing","11","dull","miserable","NegNeg","9","0","negative","negative","9","dull","left","true"
"html-keyboard-response","24","33439","0.0-2.0-0.11","1060","20","pre","7","afternoon","2026-04-15","2026-04-28","2026-04-21T16:26:36.391Z","Mozilla/5.0 (iPhone; CPU iPhone OS 18_7 like Mac OS X) AppleWebKit/605.1.15 (KHTML, like Gecko) Mobile/15E148","358","632","240","","null","<div style=""font-size:60px;"">+</div>","null","fixation","","","","","","","","","","","",""
"html-button-response","25","35051","0.0-2.0-1.11","1060","20","pre","7","afternoon","2026-04-15","2026-04-28","2026-04-21T16:26:36.391Z","Mozilla/5.0 (iPhone; CPU iPhone OS 18_7 like Mac OS X) AppleWebKit/605.1.15 (KHTML, like Gecko) Mobile/15E148","358","632","240","","1605","<div class=""prompt"" style=""font-size:24px; margin-bottom:20px;"">Which word describes you more?</div>","1","pairing","12","brave","playful","PosPos","28","94","positive","positive","66","playful","right","true"
"html-keyboard-response","26","35854","0.0-2.0-0.12","1060","20","pre","7","afternoon","2026-04-15","2026-04-28","2026-04-21T16:26:36.391Z","Mozilla/5.0 (iPhone; CPU iPhone OS 18_7 like Mac OS X) AppleWebKit/605.1.15 (KHTML, like Gecko) Mobile/15E148","358","632","240","","null","<div style=""font-size:60px;"">+</div>","null","fixation","","","","","","","","","","","",""
"html-button-response","27","37032","0.0-2.0-1.12","1060","20","pre","7","afternoon","2026-04-15","2026-04-28","2026-04-21T16:26:36.391Z","Mozilla/5.0 (iPhone; CPU iPhone OS 18_7 like Mac OS X) AppleWebKit/605.1.15 (KHTML, like Gecko) Mobile/15E148","358","632","240","","1175","<div class=""prompt"" style=""font-size:24px; margin-bottom:20px;"">Which word describes you more?</div>","0","pairing","13","brave","heartbroken","PosNeg","28","0","positive","negative","28","brave","left","true"
"html-keyboard-response","28","37834","0.0-2.0-0.13","1060","20","pre","7","afternoon","2026-04-15","2026-04-28","2026-04-21T16:26:36.391Z","Mozilla/5.0 (iPhone; CPU iPhone OS 18_7 like Mac OS X) AppleWebKit/605.1.15 (KHTML, like Gecko) Mobile/15E148","358","632","240","","null","<div style=""font-size:60px;"">+</div>","null","fixation","","","","","","","","","","","",""
"html-button-response","29","38847","0.0-2.0-1.13","1060","20","pre","7","afternoon","2026-04-15","2026-04-28","2026-04-21T16:26:36.391Z","Mozilla/5.0 (iPhone; CPU iPhone OS 18_7 like Mac OS X) AppleWebKit/605.1.15 (KHTML, like Gecko) Mobile/15E148","358","632","240","","1011","<div class=""prompt"" style=""font-size:24px; margin-bottom:20px;"">Which word describes you more?</div>","0","pairing","14","humorous","flawless","PosPos","89","4","positive","positive","85","humorous","left","true"
"html-keyboard-response","30","39650","0.0-2.0-0.14","1060","20","pre","7","afternoon","2026-04-15","2026-04-28","2026-04-21T16:26:36.391Z","Mozilla/5.0 (iPhone; CPU iPhone OS 18_7 like Mac OS X) AppleWebKit/605.1.15 (KHTML, like Gecko) Mobile/15E148","358","632","240","","null","<div style=""font-size:60px;"">+</div>","null","fixation","","","","","","","","","","","",""
"html-button-response","31","40614","0.0-2.0-1.14","1060","20","pre","7","afternoon","2026-04-15","2026-04-28","2026-04-21T16:26:36.391Z","Mozilla/5.0 (iPhone; CPU iPhone OS 18_7 like Mac OS X) AppleWebKit/605.1.15 (KHTML, like Gecko) Mobile/15E148","358","632","240","","961","<div class=""prompt"" style=""font-size:24px; margin-bottom:20px;"">Which word describes you more?</div>","1","pairing","15","flawless","stingy","PosNeg","4","74","positive","negative","70","stingy","right","true"
"html-keyboard-response","32","41416","0.0-2.0-0.15","1060","20","pre","7","afternoon","2026-04-15","2026-04-28","2026-04-21T16:26:36.391Z","Mozilla/5.0 (iPhone; CPU iPhone OS 18_7 like Mac OS X) AppleWebKit/605.1.15 (KHTML, like Gecko) Mobile/15E148","358","632","240","","null","<div style=""font-size:60px;"">+</div>","null","fixation","","","","","","","","","","","",""
"html-button-response","33","42824","0.0-2.0-1.15","1060","20","pre","7","afternoon","2026-04-15","2026-04-28","2026-04-21T16:26:36.391Z","Mozilla/5.0 (iPhone; CPU iPhone OS 18_7 like Mac OS X) AppleWebKit/605.1.15 (KHTML, like Gecko) Mobile/15E148","358","632","240","","1406","<div class=""prompt"" style=""font-size:24px; margin-bottom:20px;"">Which word describes you more?</div>","0","pairing","16","hesitant","awful","NegNeg","68","0","negative","negative","68","hesitant","left","true"
"html-keyboard-response","34","43629","0.0-2.0-0.16","1060","20","pre","7","afternoon","2026-04-15","2026-04-28","2026-04-21T16:26:36.391Z","Mozilla/5.0 (iPhone; CPU iPhone OS 18_7 like Mac OS X) AppleWebKit/605.1.15 (KHTML, like Gecko) Mobile/15E148","358","632","240","","null","<div style=""font-size:60px;"">+</div>","null","fixation","","","","","","","","","","","",""
"html-button-response","35","44888","0.0-2.0-1.16","1060","20","pre","7","afternoon","2026-04-15","2026-04-28","2026-04-21T16:26:36.391Z","Mozilla/5.0 (iPhone; CPU iPhone OS 18_7 like Mac OS X) AppleWebKit/605.1.15 (KHTML, like Gecko) Mobile/15E148","358","632","240","","1256","<div class=""prompt"" style=""font-size:24px; margin-bottom:20px;"">Which word describes you more?</div>","1","pairing","17","decisive","delight","PosPos","18","91","positive","positive","73","delight","right","true"
"html-keyboard-response","36","45691","0.0-2.0-0.17","1060","20","pre","7","afternoon","2026-04-15","2026-04-28","2026-04-21T16:26:36.391Z","Mozilla/5.0 (iPhone; CPU iPhone OS 18_7 like Mac OS X) AppleWebKit/605.1.15 (KHTML, like Gecko) Mobile/15E148","358","632","240","","null","<div style=""font-size:60px;"">+</div>","null","fixation","","","","","","","","","","","",""
"html-button-response","37","46755","0.0-2.0-1.17","1060","20","pre","7","afternoon","2026-04-15","2026-04-28","2026-04-21T16:26:36.391Z","Mozilla/5.0 (iPhone; CPU iPhone OS 18_7 like Mac OS X) AppleWebKit/605.1.15 (KHTML, like Gecko) Mobile/15E148","358","632","240","","1061","<div class=""prompt"" style=""font-size:24px; margin-bottom:20px;"">Which word describes you more?</div>","0","pairing","18","courteous","incompetent","PosNeg","93","5","positive","negative","88","courteous","left","true"
"html-keyboard-response","38","47558","0.0-2.0-0.18","1060","20","pre","7","afternoon","2026-04-15","2026-04-28","2026-04-21T16:26:36.391Z","Mozilla/5.0 (iPhone; CPU iPhone OS 18_7 like Mac OS X) AppleWebKit/605.1.15 (KHTML, like Gecko) Mobile/15E148","358","632","240","","null","<div style=""font-size:60px;"">+</div>","null","fixation","","","","","","","","","","","",""
"html-button-response","39","48498","0.0-2.0-1.18","1060","20","pre","7","afternoon","2026-04-15","2026-04-28","2026-04-21T16:26:36.391Z","Mozilla/5.0 (iPhone; CPU iPhone OS 18_7 like Mac OS X) AppleWebKit/605.1.15 (KHTML, like Gecko) Mobile/15E148","358","632","240","","936","<div class=""prompt"" style=""font-size:24px; margin-bottom:20px;"">Which word describes you more?</div>","0","pairing","19","sensible","eloquent","PosPos","92","49","positive","positive","43","sensible","left","true"
"html-keyboard-response","40","49300","0.0-2.0-0.19","1060","20","pre","7","afternoon","2026-04-15","2026-04-28","2026-04-21T16:26:36.391Z","Mozilla/5.0 (iPhone; CPU iPhone OS 18_7 like Mac OS X) AppleWebKit/605.1.15 (KHTML, like Gecko) Mobile/15E148","358","632","240","","null","<div style=""font-size:60px;"">+</div>","null","fixation","","","","","","","","","","","",""
"html-button-response","41","50423","0.0-2.0-1.19","1060","20","pre","7","afternoon","2026-04-15","2026-04-28","2026-04-21T16:26:36.391Z","Mozilla/5.0 (iPhone; CPU iPhone OS 18_7 like Mac OS X) AppleWebKit/605.1.15 (KHTML, like Gecko) Mobile/15E148","358","632","240","","1121","<div class=""prompt"" style=""font-size:24px; margin-bottom:20px;"">Which word describes you more?</div>","1","pairing","20","hesitant","skilled","PosNeg","68","62","negative","positive","6","skilled","right","true"
"html-keyboard-response","42","51226","0.0-2.0-0.20","1060","20","pre","7","afternoon","2026-04-15","2026-04-28","2026-04-21T16:26:36.391Z","Mozilla/5.0 (iPhone; CPU iPhone OS 18_7 like Mac OS X) AppleWebKit/605.1.15 (KHTML, like Gecko) Mobile/15E148","358","632","240","","null","<div style=""font-size:60px;"">+</div>","null","fixation","","","","","","","","","","","",""
"html-button-response","43","52367","0.0-2.0-1.20","1060","20","pre","7","afternoon","2026-04-15","2026-04-28","2026-04-21T16:26:36.391Z","Mozilla/5.0 (iPhone; CPU iPhone OS 18_7 like Mac OS X) AppleWebKit/605.1.15 (KHTML, like Gecko) Mobile/15E148","358","632","240","","1138","<div class=""prompt"" style=""font-size:24px; margin-bottom:20px;"">Which word describes you more?</div>","0","pairing","21","delight","liar","PosNeg","91","1","positive","negative","90","delight","left","true"
"html-keyboard-response","44","53169","0.0-2.0-0.21","1060","20","pre","7","afternoon","2026-04-15","2026-04-28","2026-04-21T16:26:36.391Z","Mozilla/5.0 (iPhone; CPU iPhone OS 18_7 like Mac OS X) AppleWebKit/605.1.15 (KHTML, like Gecko) Mobile/15E148","358","632","240","","null","<div style=""font-size:60px;"">+</div>","null","fixation","","","","","","","","","","","",""
"html-button-response","45","54301","0.0-2.0-1.21","1060","20","pre","7","afternoon","2026-04-15","2026-04-28","2026-04-21T16:26:36.391Z","Mozilla/5.0 (iPhone; CPU iPhone OS 18_7 like Mac OS X) AppleWebKit/605.1.15 (KHTML, like Gecko) Mobile/15E148","358","632","240","","1130","<div class=""prompt"" style=""font-size:24px; margin-bottom:20px;"">Which word describes you more?</div>","1","pairing","22","disloyal","stingy","NegNeg","2","74","negative","negative","72","stingy","right","true"
"html-keyboard-response","46","55108","0.0-2.0-0.22","1060","20","pre","7","afternoon","2026-04-15","2026-04-28","2026-04-21T16:26:36.391Z","Mozilla/5.0 (iPhone; CPU iPhone OS 18_7 like Mac OS X) AppleWebKit/605.1.15 (KHTML, like Gecko) Mobile/15E148","358","632","240","","null","<div style=""font-size:60px;"">+</div>","null","fixation","","","","","","","","","","","",""
"html-button-response","47","56662","0.0-2.0-1.22","1060","20","pre","7","afternoon","2026-04-15","2026-04-28","2026-04-21T16:26:36.391Z","Mozilla/5.0 (iPhone; CPU iPhone OS 18_7 like Mac OS X) AppleWebKit/605.1.15 (KHTML, like Gecko) Mobile/15E148","358","632","240","","1550","<div class=""prompt"" style=""font-size:24px; margin-bottom:20px;"">Which word describes you more?</div>","0","pairing","23","inspirational","empty","PosNeg","66","20","positive","negative","46","inspirational","left","true"
"html-keyboard-response","48","57465","0.0-2.0-0.23","1060","20","pre","7","afternoon","2026-04-15","2026-04-28","2026-04-21T16:26:36.391Z","Mozilla/5.0 (iPhone; CPU iPhone OS 18_7 like Mac OS X) AppleWebKit/605.1.15 (KHTML, like Gecko) Mobile/15E148","358","632","240","","null","<div style=""font-size:60px;"">+</div>","null","fixation","","","","","","","","","","","",""
"html-button-response","49","61547","0.0-2.0-1.23","1060","20","pre","7","afternoon","2026-04-15","2026-04-28","2026-04-21T16:26:36.391Z","Mozilla/5.0 (iPhone; CPU iPhone OS 18_7 like Mac OS X) AppleWebKit/605.1.15 (KHTML, like Gecko) Mobile/15E148","358","632","240","","4080","<div class=""prompt"" style=""font-size:24px; margin-bottom:20px;"">Which word describes you more?</div>","1","pairing","24","outcast","regretful","NegNeg","2","4","negative","negative","2","regretful","right","true"
"instructions","50","62232","0.0-3.0","1060","20","pre","7","afternoon","2026-04-15","2026-04-28","2026-04-21T16:26:36.391Z","Mozilla/5.0 (iPhone; CPU iPhone OS 18_7 like Mac OS X) AppleWebKit/605.1.15 (KHTML, like Gecko) Mobile/15E148","358","632","240","[{""page_index"":0,""viewing_time"":683}]","683","","","","","","","","","","","","","","",""
