"trial_type","trial_index","time_elapsed","internal_node_id","PUNS_ID","session_number","session_phase","session_day","session_slot","ema_start_date","ema_post_start_date","experiment_start","browser","screen_width","screen_height","timezone_offset","view_history","rt","stimulus","response","which_experiment_phase","trial_number","left_word","right_word","valence","left_base_rating","right_base_rating","left_valence","right_valence","abs_diff","participant_response","chosen_side","valid_response"
"pavlovia","0","2566","0.0-0.0","1017","14","pre","5","afternoon","2026-02-16","2026-02-28","2026-02-20T20:46:12.056Z","Mozilla/5.0 (iPhone; CPU iPhone OS 18_7 like Mac OS X) AppleWebKit/605.1.15 (KHTML, like Gecko) Mobile/15E148","370","644","480","","","","","","","","","","","","","","","","",""
"instructions","1","5588","0.0-1.0","1017","14","pre","5","afternoon","2026-02-16","2026-02-28","2026-02-20T20:46:12.056Z","Mozilla/5.0 (iPhone; CPU iPhone OS 18_7 like Mac OS X) AppleWebKit/605.1.15 (KHTML, like Gecko) Mobile/15E148","370","644","480","[{""page_index"":0,""viewing_time"":722},{""page_index"":1,""viewing_time"":513},{""page_index"":2,""viewing_time"":867},{""page_index"":3,""viewing_time"":916}]","3019","","","","","","","","","","","","","","",""
"html-keyboard-response","2","6392","0.0-2.0-0.0","1017","14","pre","5","afternoon","2026-02-16","2026-02-28","2026-02-20T20:46:12.056Z","Mozilla/5.0 (iPhone; CPU iPhone OS 18_7 like Mac OS X) AppleWebKit/605.1.15 (KHTML, like Gecko) Mobile/15E148","370","644","480","","null","<div style=""font-size:60px;"">+</div>","null","fixation","","","","","","","","","","","",""
"html-button-response","3","8666","0.0-2.0-1.0","1017","14","pre","5","afternoon","2026-02-16","2026-02-28","2026-02-20T20:46:12.056Z","Mozilla/5.0 (iPhone; CPU iPhone OS 18_7 like Mac OS X) AppleWebKit/605.1.15 (KHTML, like Gecko) Mobile/15E148","370","644","480","","2270","<div class=""prompt"" style=""font-size:24px; margin-bottom:20px;"">Which word describes you more?</div>","0","pairing","1","spontaneous","distressed","PosNeg","37","45","positive","negative","8","spontaneous","left","true"
"html-keyboard-response","4","9468","0.0-2.0-0.1","1017","14","pre","5","afternoon","2026-02-16","2026-02-28","2026-02-20T20:46:12.056Z","Mozilla/5.0 (iPhone; CPU iPhone OS 18_7 like Mac OS X) AppleWebKit/605.1.15 (KHTML, like Gecko) Mobile/15E148","370","644","480","","null","<div style=""font-size:60px;"">+</div>","null","fixation","","","","","","","","","","","",""
"html-button-response","5","11190","0.0-2.0-1.1","1017","14","pre","5","afternoon","2026-02-16","2026-02-28","2026-02-20T20:46:12.056Z","Mozilla/5.0 (iPhone; CPU iPhone OS 18_7 like Mac OS X) AppleWebKit/605.1.15 (KHTML, like Gecko) Mobile/15E148","370","644","480","","1719","<div class=""prompt"" style=""font-size:24px; margin-bottom:20px;"">Which word describes you more?</div>","1","pairing","2","peaceful","idealistic","PosPos","48","89","positive","positive","41","idealistic","right","true"
"html-keyboard-response","6","11992","0.0-2.0-0.2","1017","14","pre","5","afternoon","2026-02-16","2026-02-28","2026-02-20T20:46:12.056Z","Mozilla/5.0 (iPhone; CPU iPhone OS 18_7 like Mac OS X) AppleWebKit/605.1.15 (KHTML, like Gecko) Mobile/15E148","370","644","480","","null","<div style=""font-size:60px;"">+</div>","null","fixation","","","","","","","","","","","",""
"html-button-response","7","13216","0.0-2.0-1.2","1017","14","pre","5","afternoon","2026-02-16","2026-02-28","2026-02-20T20:46:12.056Z","Mozilla/5.0 (iPhone; CPU iPhone OS 18_7 like Mac OS X) AppleWebKit/605.1.15 (KHTML, like Gecko) Mobile/15E148","370","644","480","","1221","<div class=""prompt"" style=""font-size:24px; margin-bottom:20px;"">Which word describes you more?</div>","0","pairing","3","awkward","flawless","PosNeg","49","0","negative","positive","49","awkward","left","true"
"html-keyboard-response","8","14018","0.0-2.0-0.3","1017","14","pre","5","afternoon","2026-02-16","2026-02-28","2026-02-20T20:46:12.056Z","Mozilla/5.0 (iPhone; CPU iPhone OS 18_7 like Mac OS X) AppleWebKit/605.1.15 (KHTML, like Gecko) Mobile/15E148","370","644","480","","null","<div style=""font-size:60px;"">+</div>","null","fixation","","","","","","","","","","","",""
"html-button-response","9","15409","0.0-2.0-1.3","1017","14","pre","5","afternoon","2026-02-16","2026-02-28","2026-02-20T20:46:12.056Z","Mozilla/5.0 (iPhone; CPU iPhone OS 18_7 like Mac OS X) AppleWebKit/605.1.15 (KHTML, like Gecko) Mobile/15E148","370","644","480","","1390","<div class=""prompt"" style=""font-size:24px; margin-bottom:20px;"">Which word describes you more?</div>","0","pairing","4","playful","phony","PosNeg","28","11","positive","negative","17","playful","left","true"
"html-keyboard-response","10","16212","0.0-2.0-0.4","1017","14","pre","5","afternoon","2026-02-16","2026-02-28","2026-02-20T20:46:12.056Z","Mozilla/5.0 (iPhone; CPU iPhone OS 18_7 like Mac OS X) AppleWebKit/605.1.15 (KHTML, like Gecko) Mobile/15E148","370","644","480","","null","<div style=""font-size:60px;"">+</div>","null","fixation","","","","","","","","","","","",""
"html-button-response","11","17358","0.0-2.0-1.4","1017","14","pre","5","afternoon","2026-02-16","2026-02-28","2026-02-20T20:46:12.056Z","Mozilla/5.0 (iPhone; CPU iPhone OS 18_7 like Mac OS X) AppleWebKit/605.1.15 (KHTML, like Gecko) Mobile/15E148","370","644","480","","1144","<div class=""prompt"" style=""font-size:24px; margin-bottom:20px;"">Which word describes you more?</div>","0","pairing","5","seeker","spirited","PosPos","100","49","positive","positive","51","seeker","left","true"
"html-keyboard-response","12","18160","0.0-2.0-0.5","1017","14","pre","5","afternoon","2026-02-16","2026-02-28","2026-02-20T20:46:12.056Z","Mozilla/5.0 (iPhone; CPU iPhone OS 18_7 like Mac OS X) AppleWebKit/605.1.15 (KHTML, like Gecko) Mobile/15E148","370","644","480","","null","<div style=""font-size:60px;"">+</div>","null","fixation","","","","","","","","","","","",""
"html-button-response","13","19416","0.0-2.0-1.5","1017","14","pre","5","afternoon","2026-02-16","2026-02-28","2026-02-20T20:46:12.056Z","Mozilla/5.0 (iPhone; CPU iPhone OS 18_7 like Mac OS X) AppleWebKit/605.1.15 (KHTML, like Gecko) Mobile/15E148","370","644","480","","1255","<div class=""prompt"" style=""font-size:24px; margin-bottom:20px;"">Which word describes you more?</div>","1","pairing","6","worthless","insecure","NegNeg","0","13","negative","negative","13","insecure","right","true"
"html-keyboard-response","14","20218","0.0-2.0-0.6","1017","14","pre","5","afternoon","2026-02-16","2026-02-28","2026-02-20T20:46:12.056Z","Mozilla/5.0 (iPhone; CPU iPhone OS 18_7 like Mac OS X) AppleWebKit/605.1.15 (KHTML, like Gecko) Mobile/15E148","370","644","480","","null","<div style=""font-size:60px;"">+</div>","null","fixation","","","","","","","","","","","",""
"html-button-response","15","22400","0.0-2.0-1.6","1017","14","pre","5","afternoon","2026-02-16","2026-02-28","2026-02-20T20:46:12.056Z","Mozilla/5.0 (iPhone; CPU iPhone OS 18_7 like Mac OS X) AppleWebKit/605.1.15 (KHTML, like Gecko) Mobile/15E148","370","644","480","","2181","<div class=""prompt"" style=""font-size:24px; margin-bottom:20px;"">Which word describes you more?</div>","1","pairing","7","problematic","spectacular","PosNeg","8","21","negative","positive","13","spectacular","right","true"
"html-keyboard-response","16","23202","0.0-2.0-0.7","1017","14","pre","5","afternoon","2026-02-16","2026-02-28","2026-02-20T20:46:12.056Z","Mozilla/5.0 (iPhone; CPU iPhone OS 18_7 like Mac OS X) AppleWebKit/605.1.15 (KHTML, like Gecko) Mobile/15E148","370","644","480","","null","<div style=""font-size:60px;"">+</div>","null","fixation","","","","","","","","","","","",""
"html-button-response","17","24467","0.0-2.0-1.7","1017","14","pre","5","afternoon","2026-02-16","2026-02-28","2026-02-20T20:46:12.056Z","Mozilla/5.0 (iPhone; CPU iPhone OS 18_7 like Mac OS X) AppleWebKit/605.1.15 (KHTML, like Gecko) Mobile/15E148","370","644","480","","1264","<div class=""prompt"" style=""font-size:24px; margin-bottom:20px;"">Which word describes you more?</div>","1","pairing","8","garbage","hater","NegNeg","0","14","negative","negative","14","hater","right","true"
"html-keyboard-response","18","25269","0.0-2.0-0.8","1017","14","pre","5","afternoon","2026-02-16","2026-02-28","2026-02-20T20:46:12.056Z","Mozilla/5.0 (iPhone; CPU iPhone OS 18_7 like Mac OS X) AppleWebKit/605.1.15 (KHTML, like Gecko) Mobile/15E148","370","644","480","","null","<div style=""font-size:60px;"">+</div>","null","fixation","","","","","","","","","","","",""
"html-button-response","19","26359","0.0-2.0-1.8","1017","14","pre","5","afternoon","2026-02-16","2026-02-28","2026-02-20T20:46:12.056Z","Mozilla/5.0 (iPhone; CPU iPhone OS 18_7 like Mac OS X) AppleWebKit/605.1.15 (KHTML, like Gecko) Mobile/15E148","370","644","480","","1088","<div class=""prompt"" style=""font-size:24px; margin-bottom:20px;"">Which word describes you more?</div>","1","pairing","9","disgusting","distressed","NegNeg","0","45","negative","negative","45","distressed","right","true"
"html-keyboard-response","20","27161","0.0-2.0-0.9","1017","14","pre","5","afternoon","2026-02-16","2026-02-28","2026-02-20T20:46:12.056Z","Mozilla/5.0 (iPhone; CPU iPhone OS 18_7 like Mac OS X) AppleWebKit/605.1.15 (KHTML, like Gecko) Mobile/15E148","370","644","480","","null","<div style=""font-size:60px;"">+</div>","null","fixation","","","","","","","","","","","",""
"html-button-response","21","29343","0.0-2.0-1.9","1017","14","pre","5","afternoon","2026-02-16","2026-02-28","2026-02-20T20:46:12.056Z","Mozilla/5.0 (iPhone; CPU iPhone OS 18_7 like Mac OS X) AppleWebKit/605.1.15 (KHTML, like Gecko) Mobile/15E148","370","644","480","","2181","<div class=""prompt"" style=""font-size:24px; margin-bottom:20px;"">Which word describes you more?</div>","0","pairing","10","flawless","coward","PosNeg","0","49","positive","negative","49","flawless","left","true"
"html-keyboard-response","22","30145","0.0-2.0-0.10","1017","14","pre","5","afternoon","2026-02-16","2026-02-28","2026-02-20T20:46:12.056Z","Mozilla/5.0 (iPhone; CPU iPhone OS 18_7 like Mac OS X) AppleWebKit/605.1.15 (KHTML, like Gecko) Mobile/15E148","370","644","480","","null","<div style=""font-size:60px;"">+</div>","null","fixation","","","","","","","","","","","",""
"html-button-response","23","31352","0.0-2.0-1.10","1017","14","pre","5","afternoon","2026-02-16","2026-02-28","2026-02-20T20:46:12.056Z","Mozilla/5.0 (iPhone; CPU iPhone OS 18_7 like Mac OS X) AppleWebKit/605.1.15 (KHTML, like Gecko) Mobile/15E148","370","644","480","","1203","<div class=""prompt"" style=""font-size:24px; margin-bottom:20px;"">Which word describes you more?</div>","0","pairing","11","thoughtful","expert","PosPos","100","33","positive","positive","67","thoughtful","left","true"
"html-keyboard-response","24","32154","0.0-2.0-0.11","1017","14","pre","5","afternoon","2026-02-16","2026-02-28","2026-02-20T20:46:12.056Z","Mozilla/5.0 (iPhone; CPU iPhone OS 18_7 like Mac OS X) AppleWebKit/605.1.15 (KHTML, like Gecko) Mobile/15E148","370","644","480","","null","<div style=""font-size:60px;"">+</div>","null","fixation","","","","","","","","","","","",""
"html-button-response","25","34010","0.0-2.0-1.11","1017","14","pre","5","afternoon","2026-02-16","2026-02-28","2026-02-20T20:46:12.056Z","Mozilla/5.0 (iPhone; CPU iPhone OS 18_7 like Mac OS X) AppleWebKit/605.1.15 (KHTML, like Gecko) Mobile/15E148","370","644","480","","1854","<div class=""prompt"" style=""font-size:24px; margin-bottom:20px;"">Which word describes you more?</div>","0","pairing","12","insecure","decisive","PosNeg","13","49","negative","positive","36","insecure","left","true"
"html-keyboard-response","26","34812","0.0-2.0-0.12","1017","14","pre","5","afternoon","2026-02-16","2026-02-28","2026-02-20T20:46:12.056Z","Mozilla/5.0 (iPhone; CPU iPhone OS 18_7 like Mac OS X) AppleWebKit/605.1.15 (KHTML, like Gecko) Mobile/15E148","370","644","480","","null","<div style=""font-size:60px;"">+</div>","null","fixation","","","","","","","","","","","",""
"html-button-response","27","36136","0.0-2.0-1.12","1017","14","pre","5","afternoon","2026-02-16","2026-02-28","2026-02-20T20:46:12.056Z","Mozilla/5.0 (iPhone; CPU iPhone OS 18_7 like Mac OS X) AppleWebKit/605.1.15 (KHTML, like Gecko) Mobile/15E148","370","644","480","","1322","<div class=""prompt"" style=""font-size:24px; margin-bottom:20px;"">Which word describes you more?</div>","0","pairing","13","appealing","slob","PosNeg","49","0","positive","negative","49","appealing","left","true"
"html-keyboard-response","28","36938","0.0-2.0-0.13","1017","14","pre","5","afternoon","2026-02-16","2026-02-28","2026-02-20T20:46:12.056Z","Mozilla/5.0 (iPhone; CPU iPhone OS 18_7 like Mac OS X) AppleWebKit/605.1.15 (KHTML, like Gecko) Mobile/15E148","370","644","480","","null","<div style=""font-size:60px;"">+</div>","null","fixation","","","","","","","","","","","",""
"html-button-response","29","38286","0.0-2.0-1.13","1017","14","pre","5","afternoon","2026-02-16","2026-02-28","2026-02-20T20:46:12.056Z","Mozilla/5.0 (iPhone; CPU iPhone OS 18_7 like Mac OS X) AppleWebKit/605.1.15 (KHTML, like Gecko) Mobile/15E148","370","644","480","","1346","<div class=""prompt"" style=""font-size:24px; margin-bottom:20px;"">Which word describes you more?</div>","0","pairing","14","awkward","disloyal","NegNeg","49","0","negative","negative","49","awkward","left","true"
"html-keyboard-response","30","39088","0.0-2.0-0.14","1017","14","pre","5","afternoon","2026-02-16","2026-02-28","2026-02-20T20:46:12.056Z","Mozilla/5.0 (iPhone; CPU iPhone OS 18_7 like Mac OS X) AppleWebKit/605.1.15 (KHTML, like Gecko) Mobile/15E148","370","644","480","","null","<div style=""font-size:60px;"">+</div>","null","fixation","","","","","","","","","","","",""
"html-button-response","31","40437","0.0-2.0-1.14","1017","14","pre","5","afternoon","2026-02-16","2026-02-28","2026-02-20T20:46:12.056Z","Mozilla/5.0 (iPhone; CPU iPhone OS 18_7 like Mac OS X) AppleWebKit/605.1.15 (KHTML, like Gecko) Mobile/15E148","370","644","480","","1347","<div class=""prompt"" style=""font-size:24px; margin-bottom:20px;"">Which word describes you more?</div>","1","pairing","15","degenerate","coward","NegNeg","2","49","negative","negative","47","coward","right","true"
"html-keyboard-response","32","41239","0.0-2.0-0.15","1017","14","pre","5","afternoon","2026-02-16","2026-02-28","2026-02-20T20:46:12.056Z","Mozilla/5.0 (iPhone; CPU iPhone OS 18_7 like Mac OS X) AppleWebKit/605.1.15 (KHTML, like Gecko) Mobile/15E148","370","644","480","","null","<div style=""font-size:60px;"">+</div>","null","fixation","","","","","","","","","","","",""
"html-button-response","33","42345","0.0-2.0-1.15","1017","14","pre","5","afternoon","2026-02-16","2026-02-28","2026-02-20T20:46:12.056Z","Mozilla/5.0 (iPhone; CPU iPhone OS 18_7 like Mac OS X) AppleWebKit/605.1.15 (KHTML, like Gecko) Mobile/15E148","370","644","480","","1104","<div class=""prompt"" style=""font-size:24px; margin-bottom:20px;"">Which word describes you more?</div>","1","pairing","16","fool","lovable","PosNeg","6","97","negative","positive","91","lovable","right","true"
"html-keyboard-response","34","43147","0.0-2.0-0.16","1017","14","pre","5","afternoon","2026-02-16","2026-02-28","2026-02-20T20:46:12.056Z","Mozilla/5.0 (iPhone; CPU iPhone OS 18_7 like Mac OS X) AppleWebKit/605.1.15 (KHTML, like Gecko) Mobile/15E148","370","644","480","","null","<div style=""font-size:60px;"">+</div>","null","fixation","","","","","","","","","","","",""
"html-button-response","35","44688","0.0-2.0-1.16","1017","14","pre","5","afternoon","2026-02-16","2026-02-28","2026-02-20T20:46:12.056Z","Mozilla/5.0 (iPhone; CPU iPhone OS 18_7 like Mac OS X) AppleWebKit/605.1.15 (KHTML, like Gecko) Mobile/15E148","370","644","480","","1539","<div class=""prompt"" style=""font-size:24px; margin-bottom:20px;"">Which word describes you more?</div>","1","pairing","17","awkward","hopeful","PosNeg","49","48","negative","positive","1","hopeful","right","true"
"html-keyboard-response","36","45490","0.0-2.0-0.17","1017","14","pre","5","afternoon","2026-02-16","2026-02-28","2026-02-20T20:46:12.056Z","Mozilla/5.0 (iPhone; CPU iPhone OS 18_7 like Mac OS X) AppleWebKit/605.1.15 (KHTML, like Gecko) Mobile/15E148","370","644","480","","null","<div style=""font-size:60px;"">+</div>","null","fixation","","","","","","","","","","","",""
"html-button-response","37","47271","0.0-2.0-1.17","1017","14","pre","5","afternoon","2026-02-16","2026-02-28","2026-02-20T20:46:12.056Z","Mozilla/5.0 (iPhone; CPU iPhone OS 18_7 like Mac OS X) AppleWebKit/605.1.15 (KHTML, like Gecko) Mobile/15E148","370","644","480","","1779","<div class=""prompt"" style=""font-size:24px; margin-bottom:20px;"">Which word describes you more?</div>","1","pairing","18","arrogant","champion","PosNeg","11","35","negative","positive","24","champion","right","true"
"html-keyboard-response","38","48073","0.0-2.0-0.18","1017","14","pre","5","afternoon","2026-02-16","2026-02-28","2026-02-20T20:46:12.056Z","Mozilla/5.0 (iPhone; CPU iPhone OS 18_7 like Mac OS X) AppleWebKit/605.1.15 (KHTML, like Gecko) Mobile/15E148","370","644","480","","null","<div style=""font-size:60px;"">+</div>","null","fixation","","","","","","","","","","","",""
"html-button-response","39","49397","0.0-2.0-1.18","1017","14","pre","5","afternoon","2026-02-16","2026-02-28","2026-02-20T20:46:12.056Z","Mozilla/5.0 (iPhone; CPU iPhone OS 18_7 like Mac OS X) AppleWebKit/605.1.15 (KHTML, like Gecko) Mobile/15E148","370","644","480","","1322","<div class=""prompt"" style=""font-size:24px; margin-bottom:20px;"">Which word describes you more?</div>","0","pairing","19","witty","terrible","PosNeg","74","1","positive","negative","73","witty","left","true"
"html-keyboard-response","40","50199","0.0-2.0-0.19","1017","14","pre","5","afternoon","2026-02-16","2026-02-28","2026-02-20T20:46:12.056Z","Mozilla/5.0 (iPhone; CPU iPhone OS 18_7 like Mac OS X) AppleWebKit/605.1.15 (KHTML, like Gecko) Mobile/15E148","370","644","480","","null","<div style=""font-size:60px;"">+</div>","null","fixation","","","","","","","","","","","",""
"html-button-response","41","52706","0.0-2.0-1.19","1017","14","pre","5","afternoon","2026-02-16","2026-02-28","2026-02-20T20:46:12.056Z","Mozilla/5.0 (iPhone; CPU iPhone OS 18_7 like Mac OS X) AppleWebKit/605.1.15 (KHTML, like Gecko) Mobile/15E148","370","644","480","","2505","<div class=""prompt"" style=""font-size:24px; margin-bottom:20px;"">Which word describes you more?</div>","0","pairing","20","wise","admired","PosPos","71","76","positive","positive","5","wise","left","true"
"html-keyboard-response","42","53508","0.0-2.0-0.20","1017","14","pre","5","afternoon","2026-02-16","2026-02-28","2026-02-20T20:46:12.056Z","Mozilla/5.0 (iPhone; CPU iPhone OS 18_7 like Mac OS X) AppleWebKit/605.1.15 (KHTML, like Gecko) Mobile/15E148","370","644","480","","null","<div style=""font-size:60px;"">+</div>","null","fixation","","","","","","","","","","","",""
"html-button-response","43","54806","0.0-2.0-1.20","1017","14","pre","5","afternoon","2026-02-16","2026-02-28","2026-02-20T20:46:12.056Z","Mozilla/5.0 (iPhone; CPU iPhone OS 18_7 like Mac OS X) AppleWebKit/605.1.15 (KHTML, like Gecko) Mobile/15E148","370","644","480","","1297","<div class=""prompt"" style=""font-size:24px; margin-bottom:20px;"">Which word describes you more?</div>","0","pairing","21","fool","toxic","NegNeg","6","4","negative","negative","2","fool","left","true"
"html-keyboard-response","44","55608","0.0-2.0-0.21","1017","14","pre","5","afternoon","2026-02-16","2026-02-28","2026-02-20T20:46:12.056Z","Mozilla/5.0 (iPhone; CPU iPhone OS 18_7 like Mac OS X) AppleWebKit/605.1.15 (KHTML, like Gecko) Mobile/15E148","370","644","480","","null","<div style=""font-size:60px;"">+</div>","null","fixation","","","","","","","","","","","",""
"html-button-response","45","56765","0.0-2.0-1.21","1017","14","pre","5","afternoon","2026-02-16","2026-02-28","2026-02-20T20:46:12.056Z","Mozilla/5.0 (iPhone; CPU iPhone OS 18_7 like Mac OS X) AppleWebKit/605.1.15 (KHTML, like Gecko) Mobile/15E148","370","644","480","","1155","<div class=""prompt"" style=""font-size:24px; margin-bottom:20px;"">Which word describes you more?</div>","1","pairing","22","blissful","skilled","PosPos","7","83","positive","positive","76","skilled","right","true"
"html-keyboard-response","46","57567","0.0-2.0-0.22","1017","14","pre","5","afternoon","2026-02-16","2026-02-28","2026-02-20T20:46:12.056Z","Mozilla/5.0 (iPhone; CPU iPhone OS 18_7 like Mac OS X) AppleWebKit/605.1.15 (KHTML, like Gecko) Mobile/15E148","370","644","480","","null","<div style=""font-size:60px;"">+</div>","null","fixation","","","","","","","","","","","",""
"html-button-response","47","58615","0.0-2.0-1.22","1017","14","pre","5","afternoon","2026-02-16","2026-02-28","2026-02-20T20:46:12.056Z","Mozilla/5.0 (iPhone; CPU iPhone OS 18_7 like Mac OS X) AppleWebKit/605.1.15 (KHTML, like Gecko) Mobile/15E148","370","644","480","","1045","<div class=""prompt"" style=""font-size:24px; margin-bottom:20px;"">Which word describes you more?</div>","1","pairing","23","parasite","skilled","PosNeg","1","83","negative","positive","82","skilled","right","true"
"html-keyboard-response","48","59417","0.0-2.0-0.23","1017","14","pre","5","afternoon","2026-02-16","2026-02-28","2026-02-20T20:46:12.056Z","Mozilla/5.0 (iPhone; CPU iPhone OS 18_7 like Mac OS X) AppleWebKit/605.1.15 (KHTML, like Gecko) Mobile/15E148","370","644","480","","null","<div style=""font-size:60px;"">+</div>","null","fixation","","","","","","","","","","","",""
"html-button-response","49","60782","0.0-2.0-1.23","1017","14","pre","5","afternoon","2026-02-16","2026-02-28","2026-02-20T20:46:12.056Z","Mozilla/5.0 (iPhone; CPU iPhone OS 18_7 like Mac OS X) AppleWebKit/605.1.15 (KHTML, like Gecko) Mobile/15E148","370","644","480","","1363","<div class=""prompt"" style=""font-size:24px; margin-bottom:20px;"">Which word describes you more?</div>","0","pairing","24","companion","humorous","PosPos","100","76","positive","positive","24","companion","left","true"
"instructions","50","61757","0.0-3.0","1017","14","pre","5","afternoon","2026-02-16","2026-02-28","2026-02-20T20:46:12.056Z","Mozilla/5.0 (iPhone; CPU iPhone OS 18_7 like Mac OS X) AppleWebKit/605.1.15 (KHTML, like Gecko) Mobile/15E148","370","644","480","[{""page_index"":0,""viewing_time"":973}]","973","","","","","","","","","","","","","","",""
