"trial_type","trial_index","time_elapsed","internal_node_id","PUNS_ID","session_number","session_phase","session_day","session_slot","ema_start_date","ema_post_start_date","experiment_start","browser","screen_width","screen_height","timezone_offset","view_history","rt","stimulus","response","which_experiment_phase","trial_number","left_word","right_word","valence","left_base_rating","right_base_rating","left_valence","right_valence","abs_diff","participant_response","chosen_side","valid_response"
"pavlovia","0","1809","0.0-0.0","1033","2","pre","1","afternoon","2026-03-25","2026-04-06","2026-03-25T19:57:16.519Z","Mozilla/5.0 (iPhone; CPU iPhone OS 18_7 like Mac OS X) AppleWebKit/605.1.15 (KHTML, like Gecko) Mobile/15E148","370","644","300","","","","","","","","","","","","","","","","",""
"instructions","1","11471","0.0-1.0","1033","2","pre","1","afternoon","2026-03-25","2026-04-06","2026-03-25T19:57:16.519Z","Mozilla/5.0 (iPhone; CPU iPhone OS 18_7 like Mac OS X) AppleWebKit/605.1.15 (KHTML, like Gecko) Mobile/15E148","370","644","300","[{""page_index"":0,""viewing_time"":2210},{""page_index"":1,""viewing_time"":3019},{""page_index"":2,""viewing_time"":2905},{""page_index"":3,""viewing_time"":1525}]","9660","","","","","","","","","","","","","","",""
"html-keyboard-response","2","12274","0.0-2.0-0.0","1033","2","pre","1","afternoon","2026-03-25","2026-04-06","2026-03-25T19:57:16.519Z","Mozilla/5.0 (iPhone; CPU iPhone OS 18_7 like Mac OS X) AppleWebKit/605.1.15 (KHTML, like Gecko) Mobile/15E148","370","644","300","","null","<div style=""font-size:60px;"">+</div>","null","fixation","","","","","","","","","","","",""
"html-button-response","3","14055","0.0-2.0-1.0","1033","2","pre","1","afternoon","2026-03-25","2026-04-06","2026-03-25T19:57:16.519Z","Mozilla/5.0 (iPhone; CPU iPhone OS 18_7 like Mac OS X) AppleWebKit/605.1.15 (KHTML, like Gecko) Mobile/15E148","370","644","300","","1779","<div class=""prompt"" style=""font-size:24px; margin-bottom:20px;"">Which word describes you more?</div>","1","pairing","1","parasite","clever","PosNeg","0","68","negative","positive","68","clever","right","true"
"html-keyboard-response","4","14857","0.0-2.0-0.1","1033","2","pre","1","afternoon","2026-03-25","2026-04-06","2026-03-25T19:57:16.519Z","Mozilla/5.0 (iPhone; CPU iPhone OS 18_7 like Mac OS X) AppleWebKit/605.1.15 (KHTML, like Gecko) Mobile/15E148","370","644","300","","null","<div style=""font-size:60px;"">+</div>","null","fixation","","","","","","","","","","","",""
"html-button-response","5","16121","0.0-2.0-1.1","1033","2","pre","1","afternoon","2026-03-25","2026-04-06","2026-03-25T19:57:16.519Z","Mozilla/5.0 (iPhone; CPU iPhone OS 18_7 like Mac OS X) AppleWebKit/605.1.15 (KHTML, like Gecko) Mobile/15E148","370","644","300","","1262","<div class=""prompt"" style=""font-size:24px; margin-bottom:20px;"">Which word describes you more?</div>","1","pairing","2","flawless","blissful","PosPos","10","78","positive","positive","68","blissful","right","true"
"html-keyboard-response","6","16923","0.0-2.0-0.2","1033","2","pre","1","afternoon","2026-03-25","2026-04-06","2026-03-25T19:57:16.519Z","Mozilla/5.0 (iPhone; CPU iPhone OS 18_7 like Mac OS X) AppleWebKit/605.1.15 (KHTML, like Gecko) Mobile/15E148","370","644","300","","null","<div style=""font-size:60px;"">+</div>","null","fixation","","","","","","","","","","","",""
"html-button-response","7","18255","0.0-2.0-1.2","1033","2","pre","1","afternoon","2026-03-25","2026-04-06","2026-03-25T19:57:16.519Z","Mozilla/5.0 (iPhone; CPU iPhone OS 18_7 like Mac OS X) AppleWebKit/605.1.15 (KHTML, like Gecko) Mobile/15E148","370","644","300","","1330","<div class=""prompt"" style=""font-size:24px; margin-bottom:20px;"">Which word describes you more?</div>","1","pairing","3","helpless","easygoing","PosNeg","0","73","negative","positive","73","easygoing","right","true"
"html-keyboard-response","8","19057","0.0-2.0-0.3","1033","2","pre","1","afternoon","2026-03-25","2026-04-06","2026-03-25T19:57:16.519Z","Mozilla/5.0 (iPhone; CPU iPhone OS 18_7 like Mac OS X) AppleWebKit/605.1.15 (KHTML, like Gecko) Mobile/15E148","370","644","300","","null","<div style=""font-size:60px;"">+</div>","null","fixation","","","","","","","","","","","",""
"html-button-response","9","20798","0.0-2.0-1.3","1033","2","pre","1","afternoon","2026-03-25","2026-04-06","2026-03-25T19:57:16.519Z","Mozilla/5.0 (iPhone; CPU iPhone OS 18_7 like Mac OS X) AppleWebKit/605.1.15 (KHTML, like Gecko) Mobile/15E148","370","644","300","","1740","<div class=""prompt"" style=""font-size:24px; margin-bottom:20px;"">Which word describes you more?</div>","0","pairing","4","awkward","vengeful","NegNeg","13","0","negative","negative","13","awkward","left","true"
"html-keyboard-response","10","21600","0.0-2.0-0.4","1033","2","pre","1","afternoon","2026-03-25","2026-04-06","2026-03-25T19:57:16.519Z","Mozilla/5.0 (iPhone; CPU iPhone OS 18_7 like Mac OS X) AppleWebKit/605.1.15 (KHTML, like Gecko) Mobile/15E148","370","644","300","","null","<div style=""font-size:60px;"">+</div>","null","fixation","","","","","","","","","","","",""
"html-button-response","11","23273","0.0-2.0-1.4","1033","2","pre","1","afternoon","2026-03-25","2026-04-06","2026-03-25T19:57:16.519Z","Mozilla/5.0 (iPhone; CPU iPhone OS 18_7 like Mac OS X) AppleWebKit/605.1.15 (KHTML, like Gecko) Mobile/15E148","370","644","300","","1671","<div class=""prompt"" style=""font-size:24px; margin-bottom:20px;"">Which word describes you more?</div>","1","pairing","5","traitor","cooperative","PosNeg","0","88","negative","positive","88","cooperative","right","true"
"html-keyboard-response","12","24075","0.0-2.0-0.5","1033","2","pre","1","afternoon","2026-03-25","2026-04-06","2026-03-25T19:57:16.519Z","Mozilla/5.0 (iPhone; CPU iPhone OS 18_7 like Mac OS X) AppleWebKit/605.1.15 (KHTML, like Gecko) Mobile/15E148","370","644","300","","null","<div style=""font-size:60px;"">+</div>","null","fixation","","","","","","","","","","","",""
"html-button-response","13","25265","0.0-2.0-1.5","1033","2","pre","1","afternoon","2026-03-25","2026-04-06","2026-03-25T19:57:16.519Z","Mozilla/5.0 (iPhone; CPU iPhone OS 18_7 like Mac OS X) AppleWebKit/605.1.15 (KHTML, like Gecko) Mobile/15E148","370","644","300","","1189","<div class=""prompt"" style=""font-size:24px; margin-bottom:20px;"">Which word describes you more?</div>","0","pairing","6","valued","pest","PosNeg","87","7","positive","negative","80","valued","left","true"
"html-keyboard-response","14","26067","0.0-2.0-0.6","1033","2","pre","1","afternoon","2026-03-25","2026-04-06","2026-03-25T19:57:16.519Z","Mozilla/5.0 (iPhone; CPU iPhone OS 18_7 like Mac OS X) AppleWebKit/605.1.15 (KHTML, like Gecko) Mobile/15E148","370","644","300","","null","<div style=""font-size:60px;"">+</div>","null","fixation","","","","","","","","","","","",""
"html-button-response","15","27732","0.0-2.0-1.6","1033","2","pre","1","afternoon","2026-03-25","2026-04-06","2026-03-25T19:57:16.519Z","Mozilla/5.0 (iPhone; CPU iPhone OS 18_7 like Mac OS X) AppleWebKit/605.1.15 (KHTML, like Gecko) Mobile/15E148","370","644","300","","1663","<div class=""prompt"" style=""font-size:24px; margin-bottom:20px;"">Which word describes you more?</div>","0","pairing","7","helper","parasite","PosNeg","100","0","positive","negative","100","helper","left","true"
"html-keyboard-response","16","28534","0.0-2.0-0.7","1033","2","pre","1","afternoon","2026-03-25","2026-04-06","2026-03-25T19:57:16.519Z","Mozilla/5.0 (iPhone; CPU iPhone OS 18_7 like Mac OS X) AppleWebKit/605.1.15 (KHTML, like Gecko) Mobile/15E148","370","644","300","","null","<div style=""font-size:60px;"">+</div>","null","fixation","","","","","","","","","","","",""
"html-button-response","17","29957","0.0-2.0-1.7","1033","2","pre","1","afternoon","2026-03-25","2026-04-06","2026-03-25T19:57:16.519Z","Mozilla/5.0 (iPhone; CPU iPhone OS 18_7 like Mac OS X) AppleWebKit/605.1.15 (KHTML, like Gecko) Mobile/15E148","370","644","300","","1421","<div class=""prompt"" style=""font-size:24px; margin-bottom:20px;"">Which word describes you more?</div>","0","pairing","8","devoted","parasite","PosNeg","81","0","positive","negative","81","devoted","left","true"
"html-keyboard-response","18","30760","0.0-2.0-0.8","1033","2","pre","1","afternoon","2026-03-25","2026-04-06","2026-03-25T19:57:16.519Z","Mozilla/5.0 (iPhone; CPU iPhone OS 18_7 like Mac OS X) AppleWebKit/605.1.15 (KHTML, like Gecko) Mobile/15E148","370","644","300","","null","<div style=""font-size:60px;"">+</div>","null","fixation","","","","","","","","","","","",""
"html-button-response","19","32058","0.0-2.0-1.8","1033","2","pre","1","afternoon","2026-03-25","2026-04-06","2026-03-25T19:57:16.519Z","Mozilla/5.0 (iPhone; CPU iPhone OS 18_7 like Mac OS X) AppleWebKit/605.1.15 (KHTML, like Gecko) Mobile/15E148","370","644","300","","1296","<div class=""prompt"" style=""font-size:24px; margin-bottom:20px;"">Which word describes you more?</div>","0","pairing","9","witty","safe","PosPos","66","87","positive","positive","21","witty","left","true"
"html-keyboard-response","20","32860","0.0-2.0-0.9","1033","2","pre","1","afternoon","2026-03-25","2026-04-06","2026-03-25T19:57:16.519Z","Mozilla/5.0 (iPhone; CPU iPhone OS 18_7 like Mac OS X) AppleWebKit/605.1.15 (KHTML, like Gecko) Mobile/15E148","370","644","300","","null","<div style=""font-size:60px;"">+</div>","null","fixation","","","","","","","","","","","",""
"html-button-response","21","35600","0.0-2.0-1.9","1033","2","pre","1","afternoon","2026-03-25","2026-04-06","2026-03-25T19:57:16.519Z","Mozilla/5.0 (iPhone; CPU iPhone OS 18_7 like Mac OS X) AppleWebKit/605.1.15 (KHTML, like Gecko) Mobile/15E148","370","644","300","","2738","<div class=""prompt"" style=""font-size:24px; margin-bottom:20px;"">Which word describes you more?</div>","1","pairing","10","untrustworthy","hopeless","NegNeg","51","0","negative","negative","51","hopeless","right","true"
"html-keyboard-response","22","36402","0.0-2.0-0.10","1033","2","pre","1","afternoon","2026-03-25","2026-04-06","2026-03-25T19:57:16.519Z","Mozilla/5.0 (iPhone; CPU iPhone OS 18_7 like Mac OS X) AppleWebKit/605.1.15 (KHTML, like Gecko) Mobile/15E148","370","644","300","","null","<div style=""font-size:60px;"">+</div>","null","fixation","","","","","","","","","","","",""
"html-button-response","23","39051","0.0-2.0-1.10","1033","2","pre","1","afternoon","2026-03-25","2026-04-06","2026-03-25T19:57:16.519Z","Mozilla/5.0 (iPhone; CPU iPhone OS 18_7 like Mac OS X) AppleWebKit/605.1.15 (KHTML, like Gecko) Mobile/15E148","370","644","300","","2647","<div class=""prompt"" style=""font-size:24px; margin-bottom:20px;"">Which word describes you more?</div>","1","pairing","11","untrustworthy","flawless","PosNeg","51","10","negative","positive","41","flawless","right","true"
"html-keyboard-response","24","39853","0.0-2.0-0.11","1033","2","pre","1","afternoon","2026-03-25","2026-04-06","2026-03-25T19:57:16.519Z","Mozilla/5.0 (iPhone; CPU iPhone OS 18_7 like Mac OS X) AppleWebKit/605.1.15 (KHTML, like Gecko) Mobile/15E148","370","644","300","","null","<div style=""font-size:60px;"">+</div>","null","fixation","","","","","","","","","","","",""
"html-button-response","25","42201","0.0-2.0-1.11","1033","2","pre","1","afternoon","2026-03-25","2026-04-06","2026-03-25T19:57:16.519Z","Mozilla/5.0 (iPhone; CPU iPhone OS 18_7 like Mac OS X) AppleWebKit/605.1.15 (KHTML, like Gecko) Mobile/15E148","370","644","300","","2347","<div class=""prompt"" style=""font-size:24px; margin-bottom:20px;"">Which word describes you more?</div>","1","pairing","12","hateful","dull","NegNeg","0","2","negative","negative","2","dull","right","true"
"html-keyboard-response","26","43003","0.0-2.0-0.12","1033","2","pre","1","afternoon","2026-03-25","2026-04-06","2026-03-25T19:57:16.519Z","Mozilla/5.0 (iPhone; CPU iPhone OS 18_7 like Mac OS X) AppleWebKit/605.1.15 (KHTML, like Gecko) Mobile/15E148","370","644","300","","null","<div style=""font-size:60px;"">+</div>","null","fixation","","","","","","","","","","","",""
"html-button-response","27","44802","0.0-2.0-1.12","1033","2","pre","1","afternoon","2026-03-25","2026-04-06","2026-03-25T19:57:16.519Z","Mozilla/5.0 (iPhone; CPU iPhone OS 18_7 like Mac OS X) AppleWebKit/605.1.15 (KHTML, like Gecko) Mobile/15E148","370","644","300","","1798","<div class=""prompt"" style=""font-size:24px; margin-bottom:20px;"">Which word describes you more?</div>","1","pairing","13","adorable","hopeful","PosPos","38","78","positive","positive","40","hopeful","right","true"
"html-keyboard-response","28","45604","0.0-2.0-0.13","1033","2","pre","1","afternoon","2026-03-25","2026-04-06","2026-03-25T19:57:16.519Z","Mozilla/5.0 (iPhone; CPU iPhone OS 18_7 like Mac OS X) AppleWebKit/605.1.15 (KHTML, like Gecko) Mobile/15E148","370","644","300","","null","<div style=""font-size:60px;"">+</div>","null","fixation","","","","","","","","","","","",""
"html-button-response","29","48302","0.0-2.0-1.13","1033","2","pre","1","afternoon","2026-03-25","2026-04-06","2026-03-25T19:57:16.519Z","Mozilla/5.0 (iPhone; CPU iPhone OS 18_7 like Mac OS X) AppleWebKit/605.1.15 (KHTML, like Gecko) Mobile/15E148","370","644","300","","2697","<div class=""prompt"" style=""font-size:24px; margin-bottom:20px;"">Which word describes you more?</div>","1","pairing","14","disastrous","pest","NegNeg","0","7","negative","negative","7","pest","right","true"
"html-keyboard-response","30","49104","0.0-2.0-0.14","1033","2","pre","1","afternoon","2026-03-25","2026-04-06","2026-03-25T19:57:16.519Z","Mozilla/5.0 (iPhone; CPU iPhone OS 18_7 like Mac OS X) AppleWebKit/605.1.15 (KHTML, like Gecko) Mobile/15E148","370","644","300","","null","<div style=""font-size:60px;"">+</div>","null","fixation","","","","","","","","","","","",""
"html-button-response","31","52003","0.0-2.0-1.14","1033","2","pre","1","afternoon","2026-03-25","2026-04-06","2026-03-25T19:57:16.519Z","Mozilla/5.0 (iPhone; CPU iPhone OS 18_7 like Mac OS X) AppleWebKit/605.1.15 (KHTML, like Gecko) Mobile/15E148","370","644","300","","2897","<div class=""prompt"" style=""font-size:24px; margin-bottom:20px;"">Which word describes you more?</div>","1","pairing","15","pest","sensible","PosNeg","7","69","negative","positive","62","sensible","right","true"
"html-keyboard-response","32","52805","0.0-2.0-0.15","1033","2","pre","1","afternoon","2026-03-25","2026-04-06","2026-03-25T19:57:16.519Z","Mozilla/5.0 (iPhone; CPU iPhone OS 18_7 like Mac OS X) AppleWebKit/605.1.15 (KHTML, like Gecko) Mobile/15E148","370","644","300","","null","<div style=""font-size:60px;"">+</div>","null","fixation","","","","","","","","","","","",""
"html-button-response","33","54279","0.0-2.0-1.15","1033","2","pre","1","afternoon","2026-03-25","2026-04-06","2026-03-25T19:57:16.519Z","Mozilla/5.0 (iPhone; CPU iPhone OS 18_7 like Mac OS X) AppleWebKit/605.1.15 (KHTML, like Gecko) Mobile/15E148","370","644","300","","1473","<div class=""prompt"" style=""font-size:24px; margin-bottom:20px;"">Which word describes you more?</div>","0","pairing","16","friend","flawless","PosPos","87","10","positive","positive","77","friend","left","true"
"html-keyboard-response","34","55081","0.0-2.0-0.16","1033","2","pre","1","afternoon","2026-03-25","2026-04-06","2026-03-25T19:57:16.519Z","Mozilla/5.0 (iPhone; CPU iPhone OS 18_7 like Mac OS X) AppleWebKit/605.1.15 (KHTML, like Gecko) Mobile/15E148","370","644","300","","null","<div style=""font-size:60px;"">+</div>","null","fixation","","","","","","","","","","","",""
"html-button-response","35","57087","0.0-2.0-1.16","1033","2","pre","1","afternoon","2026-03-25","2026-04-06","2026-03-25T19:57:16.519Z","Mozilla/5.0 (iPhone; CPU iPhone OS 18_7 like Mac OS X) AppleWebKit/605.1.15 (KHTML, like Gecko) Mobile/15E148","370","644","300","","2005","<div class=""prompt"" style=""font-size:24px; margin-bottom:20px;"">Which word describes you more?</div>","0","pairing","17","alluring","miserable","PosNeg","28","0","positive","negative","28","alluring","left","true"
"html-keyboard-response","36","57890","0.0-2.0-0.17","1033","2","pre","1","afternoon","2026-03-25","2026-04-06","2026-03-25T19:57:16.519Z","Mozilla/5.0 (iPhone; CPU iPhone OS 18_7 like Mac OS X) AppleWebKit/605.1.15 (KHTML, like Gecko) Mobile/15E148","370","644","300","","null","<div style=""font-size:60px;"">+</div>","null","fixation","","","","","","","","","","","",""
"html-button-response","37","60905","0.0-2.0-1.17","1033","2","pre","1","afternoon","2026-03-25","2026-04-06","2026-03-25T19:57:16.519Z","Mozilla/5.0 (iPhone; CPU iPhone OS 18_7 like Mac OS X) AppleWebKit/605.1.15 (KHTML, like Gecko) Mobile/15E148","370","644","300","","3013","<div class=""prompt"" style=""font-size:24px; margin-bottom:20px;"">Which word describes you more?</div>","1","pairing","18","visionary","excited","PosPos","100","72","positive","positive","28","excited","right","true"
"html-keyboard-response","38","61707","0.0-2.0-0.18","1033","2","pre","1","afternoon","2026-03-25","2026-04-06","2026-03-25T19:57:16.519Z","Mozilla/5.0 (iPhone; CPU iPhone OS 18_7 like Mac OS X) AppleWebKit/605.1.15 (KHTML, like Gecko) Mobile/15E148","370","644","300","","null","<div style=""font-size:60px;"">+</div>","null","fixation","","","","","","","","","","","",""
"html-button-response","39","65014","0.0-2.0-1.18","1033","2","pre","1","afternoon","2026-03-25","2026-04-06","2026-03-25T19:57:16.519Z","Mozilla/5.0 (iPhone; CPU iPhone OS 18_7 like Mac OS X) AppleWebKit/605.1.15 (KHTML, like Gecko) Mobile/15E148","370","644","300","","3306","<div class=""prompt"" style=""font-size:24px; margin-bottom:20px;"">Which word describes you more?</div>","0","pairing","19","credible","adorable","PosPos","87","38","positive","positive","49","credible","left","true"
"html-keyboard-response","40","65816","0.0-2.0-0.19","1033","2","pre","1","afternoon","2026-03-25","2026-04-06","2026-03-25T19:57:16.519Z","Mozilla/5.0 (iPhone; CPU iPhone OS 18_7 like Mac OS X) AppleWebKit/605.1.15 (KHTML, like Gecko) Mobile/15E148","370","644","300","","null","<div style=""font-size:60px;"">+</div>","null","fixation","","","","","","","","","","","",""
"html-button-response","41","68806","0.0-2.0-1.19","1033","2","pre","1","afternoon","2026-03-25","2026-04-06","2026-03-25T19:57:16.519Z","Mozilla/5.0 (iPhone; CPU iPhone OS 18_7 like Mac OS X) AppleWebKit/605.1.15 (KHTML, like Gecko) Mobile/15E148","370","644","300","","2989","<div class=""prompt"" style=""font-size:24px; margin-bottom:20px;"">Which word describes you more?</div>","0","pairing","20","deceitful","unfaithful","NegNeg","0","0","negative","negative","0","deceitful","left","true"
"html-keyboard-response","42","69608","0.0-2.0-0.20","1033","2","pre","1","afternoon","2026-03-25","2026-04-06","2026-03-25T19:57:16.519Z","Mozilla/5.0 (iPhone; CPU iPhone OS 18_7 like Mac OS X) AppleWebKit/605.1.15 (KHTML, like Gecko) Mobile/15E148","370","644","300","","null","<div style=""font-size:60px;"">+</div>","null","fixation","","","","","","","","","","","",""
"html-button-response","43","73207","0.0-2.0-1.20","1033","2","pre","1","afternoon","2026-03-25","2026-04-06","2026-03-25T19:57:16.519Z","Mozilla/5.0 (iPhone; CPU iPhone OS 18_7 like Mac OS X) AppleWebKit/605.1.15 (KHTML, like Gecko) Mobile/15E148","370","644","300","","3597","<div class=""prompt"" style=""font-size:24px; margin-bottom:20px;"">Which word describes you more?</div>","0","pairing","21","selfish","alluring","PosNeg","12","28","negative","positive","16","selfish","left","true"
"html-keyboard-response","44","74008","0.0-2.0-0.21","1033","2","pre","1","afternoon","2026-03-25","2026-04-06","2026-03-25T19:57:16.519Z","Mozilla/5.0 (iPhone; CPU iPhone OS 18_7 like Mac OS X) AppleWebKit/605.1.15 (KHTML, like Gecko) Mobile/15E148","370","644","300","","null","<div style=""font-size:60px;"">+</div>","null","fixation","","","","","","","","","","","",""
"html-button-response","45","76249","0.0-2.0-1.21","1033","2","pre","1","afternoon","2026-03-25","2026-04-06","2026-03-25T19:57:16.519Z","Mozilla/5.0 (iPhone; CPU iPhone OS 18_7 like Mac OS X) AppleWebKit/605.1.15 (KHTML, like Gecko) Mobile/15E148","370","644","300","","2240","<div class=""prompt"" style=""font-size:24px; margin-bottom:20px;"">Which word describes you more?</div>","0","pairing","22","energetic","cruel","PosNeg","58","0","positive","negative","58","energetic","left","true"
"html-keyboard-response","46","77051","0.0-2.0-0.22","1033","2","pre","1","afternoon","2026-03-25","2026-04-06","2026-03-25T19:57:16.519Z","Mozilla/5.0 (iPhone; CPU iPhone OS 18_7 like Mac OS X) AppleWebKit/605.1.15 (KHTML, like Gecko) Mobile/15E148","370","644","300","","null","<div style=""font-size:60px;"">+</div>","null","fixation","","","","","","","","","","","",""
"html-button-response","47","78857","0.0-2.0-1.22","1033","2","pre","1","afternoon","2026-03-25","2026-04-06","2026-03-25T19:57:16.519Z","Mozilla/5.0 (iPhone; CPU iPhone OS 18_7 like Mac OS X) AppleWebKit/605.1.15 (KHTML, like Gecko) Mobile/15E148","370","644","300","","1805","<div class=""prompt"" style=""font-size:24px; margin-bottom:20px;"">Which word describes you more?</div>","0","pairing","23","thoughtful","jerk","PosNeg","87","0","positive","negative","87","thoughtful","left","true"
"html-keyboard-response","48","79659","0.0-2.0-0.23","1033","2","pre","1","afternoon","2026-03-25","2026-04-06","2026-03-25T19:57:16.519Z","Mozilla/5.0 (iPhone; CPU iPhone OS 18_7 like Mac OS X) AppleWebKit/605.1.15 (KHTML, like Gecko) Mobile/15E148","370","644","300","","null","<div style=""font-size:60px;"">+</div>","null","fixation","","","","","","","","","","","",""
"html-button-response","49","83134","0.0-2.0-1.23","1033","2","pre","1","afternoon","2026-03-25","2026-04-06","2026-03-25T19:57:16.519Z","Mozilla/5.0 (iPhone; CPU iPhone OS 18_7 like Mac OS X) AppleWebKit/605.1.15 (KHTML, like Gecko) Mobile/15E148","370","644","300","","3474","<div class=""prompt"" style=""font-size:24px; margin-bottom:20px;"">Which word describes you more?</div>","0","pairing","24","unwanted","untrustworthy","NegNeg","0","51","negative","negative","51","unwanted","left","true"
"instructions","50","84433","0.0-3.0","1033","2","pre","1","afternoon","2026-03-25","2026-04-06","2026-03-25T19:57:16.519Z","Mozilla/5.0 (iPhone; CPU iPhone OS 18_7 like Mac OS X) AppleWebKit/605.1.15 (KHTML, like Gecko) Mobile/15E148","370","644","300","[{""page_index"":0,""viewing_time"":1297}]","1297","","","","","","","","","","","","","","",""
