"trial_type","trial_index","time_elapsed","internal_node_id","BASE_QUALTRICS_ID","PUNS_ID","baseline_date","baseline_time","session_day","session_slot","experiment_start","browser","screen_width","screen_height","timezone_offset","view_history","rt","stimulus","response","trial_number","left_word","right_word","valence","left_base_rating","right_base_rating","left_valence","right_valence","abs_diff","participant_response","chosen_side","valid_response","which_experiment_phase"
"pavlovia","0","1164","0.0-0.0","","9006","2025-11-06","16:18:50.979Z","day2","evening","2025-11-07T03:25:23.401Z","Mozilla/5.0 (iPhone; CPU iPhone OS 18_7_1 like Mac OS X) AppleWebKit/605.1.15 (KHTML, like Gecko) Mobile/15E148","358","633","300","","","","","","","","","","","","","","","","",""
"instructions","1","15348","0.0-1.0","","9006","2025-11-06","16:18:50.979Z","day2","evening","2025-11-07T03:25:23.401Z","Mozilla/5.0 (iPhone; CPU iPhone OS 18_7_1 like Mac OS X) AppleWebKit/605.1.15 (KHTML, like Gecko) Mobile/15E148","358","633","300","[{""page_index"":0,""viewing_time"":2938},{""page_index"":1,""viewing_time"":3171},{""page_index"":2,""viewing_time"":3067},{""page_index"":3,""viewing_time"":4999}]","14177","","","","","","","","","","","","","","",""
"html-button-response","2","18497","0.0-2.0-0.0","","9006","2025-11-06","16:18:50.979Z","day2","evening","2025-11-07T03:25:23.401Z","Mozilla/5.0 (iPhone; CPU iPhone OS 18_7_1 like Mac OS X) AppleWebKit/605.1.15 (KHTML, like Gecko) Mobile/15E148","358","633","300","","3144","<div class=""prompt"">Which word describes you more?</div>","0","1","satisfied","proficient","PosPos","11","37","positive","positive","26","satisfied","left","true","pairing"
"html-button-response","3","20467","0.0-2.0-0.1","","9006","2025-11-06","16:18:50.979Z","day2","evening","2025-11-07T03:25:23.401Z","Mozilla/5.0 (iPhone; CPU iPhone OS 18_7_1 like Mac OS X) AppleWebKit/605.1.15 (KHTML, like Gecko) Mobile/15E148","358","633","300","","1967","<div class=""prompt"">Which word describes you more?</div>","1","2","helpless","respectable","PosNeg","11","59","negative","positive","48","respectable","right","true","pairing"
"html-button-response","4","22501","0.0-2.0-0.2","","9006","2025-11-06","16:18:50.979Z","day2","evening","2025-11-07T03:25:23.401Z","Mozilla/5.0 (iPhone; CPU iPhone OS 18_7_1 like Mac OS X) AppleWebKit/605.1.15 (KHTML, like Gecko) Mobile/15E148","358","633","300","","2032","<div class=""prompt"">Which word describes you more?</div>","1","3","creep","unwelcome","NegNeg","59","37","negative","negative","22","unwelcome","right","true","pairing"
"html-button-response","5","24370","0.0-2.0-0.3","","9006","2025-11-06","16:18:50.979Z","day2","evening","2025-11-07T03:25:23.401Z","Mozilla/5.0 (iPhone; CPU iPhone OS 18_7_1 like Mac OS X) AppleWebKit/605.1.15 (KHTML, like Gecko) Mobile/15E148","358","633","300","","1868","<div class=""prompt"">Which word describes you more?</div>","0","4","comfortable","credible","PosPos","64","59","positive","positive","5","comfortable","left","true","pairing"
"html-button-response","6","27591","0.0-2.0-0.4","","9006","2025-11-06","16:18:50.979Z","day2","evening","2025-11-07T03:25:23.401Z","Mozilla/5.0 (iPhone; CPU iPhone OS 18_7_1 like Mac OS X) AppleWebKit/605.1.15 (KHTML, like Gecko) Mobile/15E148","358","633","300","","3217","<div class=""prompt"">Which word describes you more?</div>","1","5","courteous","visionary","PosPos","64","11","positive","positive","53","visionary","right","true","pairing"
"html-button-response","7","32075","0.0-2.0-0.5","","9006","2025-11-06","16:18:50.979Z","day2","evening","2025-11-07T03:25:23.401Z","Mozilla/5.0 (iPhone; CPU iPhone OS 18_7_1 like Mac OS X) AppleWebKit/605.1.15 (KHTML, like Gecko) Mobile/15E148","358","633","300","","4482","<div class=""prompt"">Which word describes you more?</div>","1","6","menace","helpless","NegNeg","37","11","negative","negative","26","helpless","right","true","pairing"
"html-button-response","8","33808","0.0-2.0-0.6","","9006","2025-11-06","16:18:50.979Z","day2","evening","2025-11-07T03:25:23.401Z","Mozilla/5.0 (iPhone; CPU iPhone OS 18_7_1 like Mac OS X) AppleWebKit/605.1.15 (KHTML, like Gecko) Mobile/15E148","358","633","300","","1731","<div class=""prompt"">Which word describes you more?</div>","0","7","spontaneous","scoundrel","PosNeg","37","37","positive","negative","0","spontaneous","left","true","pairing"
"html-button-response","9","36580","0.0-2.0-0.7","","9006","2025-11-06","16:18:50.979Z","day2","evening","2025-11-07T03:25:23.401Z","Mozilla/5.0 (iPhone; CPU iPhone OS 18_7_1 like Mac OS X) AppleWebKit/605.1.15 (KHTML, like Gecko) Mobile/15E148","358","633","300","","2770","<div class=""prompt"">Which word describes you more?</div>","1","8","safe","capable","PosPos","59","11","positive","positive","48","capable","right","true","pairing"
"html-button-response","10","38646","0.0-2.0-0.8","","9006","2025-11-06","16:18:50.979Z","day2","evening","2025-11-07T03:25:23.401Z","Mozilla/5.0 (iPhone; CPU iPhone OS 18_7_1 like Mac OS X) AppleWebKit/605.1.15 (KHTML, like Gecko) Mobile/15E148","358","633","300","","2064","<div class=""prompt"">Which word describes you more?</div>","0","9","lifeless","bully","NegNeg","59","11","negative","negative","48","lifeless","left","true","pairing"
"html-button-response","11","40967","0.0-2.0-0.9","","9006","2025-11-06","16:18:50.979Z","day2","evening","2025-11-07T03:25:23.401Z","Mozilla/5.0 (iPhone; CPU iPhone OS 18_7_1 like Mac OS X) AppleWebKit/605.1.15 (KHTML, like Gecko) Mobile/15E148","358","633","300","","2319","<div class=""prompt"">Which word describes you more?</div>","0","10","skilled","scoundrel","PosNeg","64","37","positive","negative","27","skilled","left","true","pairing"
"html-button-response","12","43018","0.0-2.0-0.10","","9006","2025-11-06","16:18:50.979Z","day2","evening","2025-11-07T03:25:23.401Z","Mozilla/5.0 (iPhone; CPU iPhone OS 18_7_1 like Mac OS X) AppleWebKit/605.1.15 (KHTML, like Gecko) Mobile/15E148","358","633","300","","2050","<div class=""prompt"">Which word describes you more?</div>","0","11","useful","respectful","PosPos","11","64","positive","positive","53","useful","left","true","pairing"
"html-button-response","13","45370","0.0-2.0-0.11","","9006","2025-11-06","16:18:50.979Z","day2","evening","2025-11-07T03:25:23.401Z","Mozilla/5.0 (iPhone; CPU iPhone OS 18_7_1 like Mac OS X) AppleWebKit/605.1.15 (KHTML, like Gecko) Mobile/15E148","358","633","300","","2350","<div class=""prompt"">Which word describes you more?</div>","0","12","carefree","empty","PosNeg","64","22","positive","negative","42","carefree","left","true","pairing"
"html-button-response","14","47423","0.0-2.0-0.12","","9006","2025-11-06","16:18:50.979Z","day2","evening","2025-11-07T03:25:23.401Z","Mozilla/5.0 (iPhone; CPU iPhone OS 18_7_1 like Mac OS X) AppleWebKit/605.1.15 (KHTML, like Gecko) Mobile/15E148","358","633","300","","2050","<div class=""prompt"">Which word describes you more?</div>","0","13","graceful","fun","PosPos","64","11","positive","positive","53","graceful","left","true","pairing"
"html-button-response","15","51176","0.0-2.0-0.13","","9006","2025-11-06","16:18:50.979Z","day2","evening","2025-11-07T03:25:23.401Z","Mozilla/5.0 (iPhone; CPU iPhone OS 18_7_1 like Mac OS X) AppleWebKit/605.1.15 (KHTML, like Gecko) Mobile/15E148","358","633","300","","3752","<div class=""prompt"">Which word describes you more?</div>","0","14","fool","liar","NegNeg","11","64","negative","negative","53","fool","left","true","pairing"
"html-button-response","16","53483","0.0-2.0-0.14","","9006","2025-11-06","16:18:50.979Z","day2","evening","2025-11-07T03:25:23.401Z","Mozilla/5.0 (iPhone; CPU iPhone OS 18_7_1 like Mac OS X) AppleWebKit/605.1.15 (KHTML, like Gecko) Mobile/15E148","358","633","300","","2304","<div class=""prompt"">Which word describes you more?</div>","1","15","failure","sensible","PosNeg","37","64","negative","positive","27","sensible","right","true","pairing"
"html-button-response","17","55568","0.0-2.0-0.15","","9006","2025-11-06","16:18:50.979Z","day2","evening","2025-11-07T03:25:23.401Z","Mozilla/5.0 (iPhone; CPU iPhone OS 18_7_1 like Mac OS X) AppleWebKit/605.1.15 (KHTML, like Gecko) Mobile/15E148","358","633","300","","2084","<div class=""prompt"">Which word describes you more?</div>","1","16","gloomy","charming","PosNeg","59","37","negative","positive","22","charming","right","true","pairing"
"html-button-response","18","57563","0.0-2.0-0.16","","9006","2025-11-06","16:18:50.979Z","day2","evening","2025-11-07T03:25:23.401Z","Mozilla/5.0 (iPhone; CPU iPhone OS 18_7_1 like Mac OS X) AppleWebKit/605.1.15 (KHTML, like Gecko) Mobile/15E148","358","633","300","","1993","<div class=""prompt"">Which word describes you more?</div>","1","17","disloyal","goodwilled","PosNeg","10","37","negative","positive","27","goodwilled","right","true","pairing"
"html-button-response","19","59737","0.0-2.0-0.17","","9006","2025-11-06","16:18:50.979Z","day2","evening","2025-11-07T03:25:23.401Z","Mozilla/5.0 (iPhone; CPU iPhone OS 18_7_1 like Mac OS X) AppleWebKit/605.1.15 (KHTML, like Gecko) Mobile/15E148","358","633","300","","2171","<div class=""prompt"">Which word describes you more?</div>","1","18","easygoing","alone","PosNeg","11","64","positive","negative","53","alone","right","true","pairing"
"html-button-response","20","62356","0.0-2.0-0.18","","9006","2025-11-06","16:18:50.979Z","day2","evening","2025-11-07T03:25:23.401Z","Mozilla/5.0 (iPhone; CPU iPhone OS 18_7_1 like Mac OS X) AppleWebKit/605.1.15 (KHTML, like Gecko) Mobile/15E148","358","633","300","","2614","<div class=""prompt"">Which word describes you more?</div>","1","19","failure","irresponsible","NegNeg","37","11","negative","negative","26","irresponsible","right","true","pairing"
"html-button-response","21","64392","0.0-2.0-0.19","","9006","2025-11-06","16:18:50.979Z","day2","evening","2025-11-07T03:25:23.401Z","Mozilla/5.0 (iPhone; CPU iPhone OS 18_7_1 like Mac OS X) AppleWebKit/605.1.15 (KHTML, like Gecko) Mobile/15E148","358","633","300","","2032","<div class=""prompt"">Which word describes you more?</div>","0","20","special","disastrous","PosNeg","59","64","positive","negative","5","special","left","true","pairing"
"html-button-response","22","66844","0.0-2.0-0.20","","9006","2025-11-06","16:18:50.979Z","day2","evening","2025-11-07T03:25:23.401Z","Mozilla/5.0 (iPhone; CPU iPhone OS 18_7_1 like Mac OS X) AppleWebKit/605.1.15 (KHTML, like Gecko) Mobile/15E148","358","633","300","","2450","<div class=""prompt"">Which word describes you more?</div>","1","21","hypocrite","cooperative","PosNeg","69","22","negative","positive","47","cooperative","right","true","pairing"
"html-button-response","23","68563","0.0-2.0-0.21","","9006","2025-11-06","16:18:50.979Z","day2","evening","2025-11-07T03:25:23.401Z","Mozilla/5.0 (iPhone; CPU iPhone OS 18_7_1 like Mac OS X) AppleWebKit/605.1.15 (KHTML, like Gecko) Mobile/15E148","358","633","300","","1718","<div class=""prompt"">Which word describes you more?</div>","1","22","lazy","charitable","PosNeg","11","59","negative","positive","48","charitable","right","true","pairing"
"html-button-response","24","70298","0.0-2.0-0.22","","9006","2025-11-06","16:18:50.979Z","day2","evening","2025-11-07T03:25:23.401Z","Mozilla/5.0 (iPhone; CPU iPhone OS 18_7_1 like Mac OS X) AppleWebKit/605.1.15 (KHTML, like Gecko) Mobile/15E148","358","633","300","","1732","<div class=""prompt"">Which word describes you more?</div>","1","23","pest","awkward","NegNeg","22","37","negative","negative","15","awkward","right","true","pairing"
"html-button-response","25","71983","0.0-2.0-0.23","","9006","2025-11-06","16:18:50.979Z","day2","evening","2025-11-07T03:25:23.401Z","Mozilla/5.0 (iPhone; CPU iPhone OS 18_7_1 like Mac OS X) AppleWebKit/605.1.15 (KHTML, like Gecko) Mobile/15E148","358","633","300","","1683","<div class=""prompt"">Which word describes you more?</div>","0","24","honest","worthless","PosNeg","22","37","positive","negative","15","honest","left","true","pairing"
"instructions","26","76235","0.0-3.0","","9006","2025-11-06","16:18:50.979Z","day2","evening","2025-11-07T03:25:23.401Z","Mozilla/5.0 (iPhone; CPU iPhone OS 18_7_1 like Mac OS X) AppleWebKit/605.1.15 (KHTML, like Gecko) Mobile/15E148","358","633","300","[{""page_index"":0,""viewing_time"":4248}]","4249","","","","","","","","","","","","","","",""
