"trial_type","trial_index","time_elapsed","internal_node_id","PUNS_ID","session_number","session_phase","session_day","session_slot","ema_start_date","ema_post_start_date","experiment_start","browser","screen_width","screen_height","timezone_offset","view_history","rt","stimulus","response","which_experiment_phase","trial_number","left_word","right_word","valence","left_base_rating","right_base_rating","left_valence","right_valence","abs_diff","participant_response","chosen_side","valid_response"
"pavlovia","0","1968","0.0-0.0","1080","23","pre","8","afternoon","2026-05-20","2026-06-03","2026-05-27T16:16:14.119Z","Mozilla/5.0 (iPhone; CPU iPhone OS 18_5 like Mac OS X) AppleWebKit/605.1.15 (KHTML, like Gecko) Mobile/15E148","343","597","240","","","","","","","","","","","","","","","","",""
"instructions","1","8957","0.0-1.0","1080","23","pre","8","afternoon","2026-05-20","2026-06-03","2026-05-27T16:16:14.119Z","Mozilla/5.0 (iPhone; CPU iPhone OS 18_5 like Mac OS X) AppleWebKit/605.1.15 (KHTML, like Gecko) Mobile/15E148","343","597","240","[{""page_index"":0,""viewing_time"":2018},{""page_index"":1,""viewing_time"":606},{""page_index"":2,""viewing_time"":3692},{""page_index"":3,""viewing_time"":660}]","6979","","","","","","","","","","","","","","",""
"html-keyboard-response","2","9765","0.0-2.0-0.0","1080","23","pre","8","afternoon","2026-05-20","2026-06-03","2026-05-27T16:16:14.119Z","Mozilla/5.0 (iPhone; CPU iPhone OS 18_5 like Mac OS X) AppleWebKit/605.1.15 (KHTML, like Gecko) Mobile/15E148","343","597","240","","null","<div style=""font-size:60px;"">+</div>","null","fixation","","","","","","","","","","","",""
"html-button-response","3","11342","0.0-2.0-1.0","1080","23","pre","8","afternoon","2026-05-20","2026-06-03","2026-05-27T16:16:14.119Z","Mozilla/5.0 (iPhone; CPU iPhone OS 18_5 like Mac OS X) AppleWebKit/605.1.15 (KHTML, like Gecko) Mobile/15E148","343","597","240","","1567","<div class=""prompt"" style=""font-size:24px; margin-bottom:20px;"">Which word describes you more?</div>","0","pairing","1","legendary","vengeful","PosNeg","14","0","positive","negative","14","legendary","left","true"
"html-keyboard-response","4","12148","0.0-2.0-0.1","1080","23","pre","8","afternoon","2026-05-20","2026-06-03","2026-05-27T16:16:14.119Z","Mozilla/5.0 (iPhone; CPU iPhone OS 18_5 like Mac OS X) AppleWebKit/605.1.15 (KHTML, like Gecko) Mobile/15E148","343","597","240","","null","<div style=""font-size:60px;"">+</div>","null","fixation","","","","","","","","","","","",""
"html-button-response","5","13004","0.0-2.0-1.1","1080","23","pre","8","afternoon","2026-05-20","2026-06-03","2026-05-27T16:16:14.119Z","Mozilla/5.0 (iPhone; CPU iPhone OS 18_5 like Mac OS X) AppleWebKit/605.1.15 (KHTML, like Gecko) Mobile/15E148","343","597","240","","854","<div class=""prompt"" style=""font-size:24px; margin-bottom:20px;"">Which word describes you more?</div>","0","pairing","2","easygoing","toxic","PosNeg","91","16","positive","negative","75","easygoing","left","true"
"html-keyboard-response","6","13808","0.0-2.0-0.2","1080","23","pre","8","afternoon","2026-05-20","2026-06-03","2026-05-27T16:16:14.119Z","Mozilla/5.0 (iPhone; CPU iPhone OS 18_5 like Mac OS X) AppleWebKit/605.1.15 (KHTML, like Gecko) Mobile/15E148","343","597","240","","null","<div style=""font-size:60px;"">+</div>","null","fixation","","","","","","","","","","","",""
"html-button-response","7","14873","0.0-2.0-1.2","1080","23","pre","8","afternoon","2026-05-20","2026-06-03","2026-05-27T16:16:14.119Z","Mozilla/5.0 (iPhone; CPU iPhone OS 18_5 like Mac OS X) AppleWebKit/605.1.15 (KHTML, like Gecko) Mobile/15E148","343","597","240","","1060","<div class=""prompt"" style=""font-size:24px; margin-bottom:20px;"">Which word describes you more?</div>","0","pairing","3","knowledgeable","charming","PosPos","59","69","positive","positive","10","knowledgeable","left","true"
"html-keyboard-response","8","15678","0.0-2.0-0.3","1080","23","pre","8","afternoon","2026-05-20","2026-06-03","2026-05-27T16:16:14.119Z","Mozilla/5.0 (iPhone; CPU iPhone OS 18_5 like Mac OS X) AppleWebKit/605.1.15 (KHTML, like Gecko) Mobile/15E148","343","597","240","","null","<div style=""font-size:60px;"">+</div>","null","fixation","","","","","","","","","","","",""
"html-button-response","9","17057","0.0-2.0-1.3","1080","23","pre","8","afternoon","2026-05-20","2026-06-03","2026-05-27T16:16:14.119Z","Mozilla/5.0 (iPhone; CPU iPhone OS 18_5 like Mac OS X) AppleWebKit/605.1.15 (KHTML, like Gecko) Mobile/15E148","343","597","240","","1377","<div class=""prompt"" style=""font-size:24px; margin-bottom:20px;"">Which word describes you more?</div>","0","pairing","4","satisfied","witty","PosPos","67","32","positive","positive","35","satisfied","left","true"
"html-keyboard-response","10","17861","0.0-2.0-0.4","1080","23","pre","8","afternoon","2026-05-20","2026-06-03","2026-05-27T16:16:14.119Z","Mozilla/5.0 (iPhone; CPU iPhone OS 18_5 like Mac OS X) AppleWebKit/605.1.15 (KHTML, like Gecko) Mobile/15E148","343","597","240","","null","<div style=""font-size:60px;"">+</div>","null","fixation","","","","","","","","","","","",""
"html-button-response","11","18742","0.0-2.0-1.4","1080","23","pre","8","afternoon","2026-05-20","2026-06-03","2026-05-27T16:16:14.119Z","Mozilla/5.0 (iPhone; CPU iPhone OS 18_5 like Mac OS X) AppleWebKit/605.1.15 (KHTML, like Gecko) Mobile/15E148","343","597","240","","878","<div class=""prompt"" style=""font-size:24px; margin-bottom:20px;"">Which word describes you more?</div>","1","pairing","5","disastrous","anxious","NegNeg","13","90","negative","negative","77","anxious","right","true"
"html-keyboard-response","12","19545","0.0-2.0-0.5","1080","23","pre","8","afternoon","2026-05-20","2026-06-03","2026-05-27T16:16:14.119Z","Mozilla/5.0 (iPhone; CPU iPhone OS 18_5 like Mac OS X) AppleWebKit/605.1.15 (KHTML, like Gecko) Mobile/15E148","343","597","240","","null","<div style=""font-size:60px;"">+</div>","null","fixation","","","","","","","","","","","",""
"html-button-response","13","20443","0.0-2.0-1.5","1080","23","pre","8","afternoon","2026-05-20","2026-06-03","2026-05-27T16:16:14.119Z","Mozilla/5.0 (iPhone; CPU iPhone OS 18_5 like Mac OS X) AppleWebKit/605.1.15 (KHTML, like Gecko) Mobile/15E148","343","597","240","","896","<div class=""prompt"" style=""font-size:24px; margin-bottom:20px;"">Which word describes you more?</div>","1","pairing","6","wise","goodwilled","PosPos","43","100","positive","positive","57","goodwilled","right","true"
"html-keyboard-response","14","21246","0.0-2.0-0.6","1080","23","pre","8","afternoon","2026-05-20","2026-06-03","2026-05-27T16:16:14.119Z","Mozilla/5.0 (iPhone; CPU iPhone OS 18_5 like Mac OS X) AppleWebKit/605.1.15 (KHTML, like Gecko) Mobile/15E148","343","597","240","","null","<div style=""font-size:60px;"">+</div>","null","fixation","","","","","","","","","","","",""
"html-button-response","15","22978","0.0-2.0-1.6","1080","23","pre","8","afternoon","2026-05-20","2026-06-03","2026-05-27T16:16:14.119Z","Mozilla/5.0 (iPhone; CPU iPhone OS 18_5 like Mac OS X) AppleWebKit/605.1.15 (KHTML, like Gecko) Mobile/15E148","343","597","240","","1729","<div class=""prompt"" style=""font-size:24px; margin-bottom:20px;"">Which word describes you more?</div>","0","pairing","7","selfish","bully","NegNeg","53","0","negative","negative","53","selfish","left","true"
"html-keyboard-response","16","23780","0.0-2.0-0.7","1080","23","pre","8","afternoon","2026-05-20","2026-06-03","2026-05-27T16:16:14.119Z","Mozilla/5.0 (iPhone; CPU iPhone OS 18_5 like Mac OS X) AppleWebKit/605.1.15 (KHTML, like Gecko) Mobile/15E148","343","597","240","","null","<div style=""font-size:60px;"">+</div>","null","fixation","","","","","","","","","","","",""
"html-button-response","17","24995","0.0-2.0-1.7","1080","23","pre","8","afternoon","2026-05-20","2026-06-03","2026-05-27T16:16:14.119Z","Mozilla/5.0 (iPhone; CPU iPhone OS 18_5 like Mac OS X) AppleWebKit/605.1.15 (KHTML, like Gecko) Mobile/15E148","343","597","240","","1210","<div class=""prompt"" style=""font-size:24px; margin-bottom:20px;"">Which word describes you more?</div>","1","pairing","8","loser","irresponsible","NegNeg","10","49","negative","negative","39","irresponsible","right","true"
"html-keyboard-response","18","25799","0.0-2.0-0.8","1080","23","pre","8","afternoon","2026-05-20","2026-06-03","2026-05-27T16:16:14.119Z","Mozilla/5.0 (iPhone; CPU iPhone OS 18_5 like Mac OS X) AppleWebKit/605.1.15 (KHTML, like Gecko) Mobile/15E148","343","597","240","","null","<div style=""font-size:60px;"">+</div>","null","fixation","","","","","","","","","","","",""
"html-button-response","19","26862","0.0-2.0-1.8","1080","23","pre","8","afternoon","2026-05-20","2026-06-03","2026-05-27T16:16:14.119Z","Mozilla/5.0 (iPhone; CPU iPhone OS 18_5 like Mac OS X) AppleWebKit/605.1.15 (KHTML, like Gecko) Mobile/15E148","343","597","240","","1060","<div class=""prompt"" style=""font-size:24px; margin-bottom:20px;"">Which word describes you more?</div>","1","pairing","9","disastrous","phony","NegNeg","13","15","negative","negative","2","phony","right","true"
"html-keyboard-response","20","27665","0.0-2.0-0.9","1080","23","pre","8","afternoon","2026-05-20","2026-06-03","2026-05-27T16:16:14.119Z","Mozilla/5.0 (iPhone; CPU iPhone OS 18_5 like Mac OS X) AppleWebKit/605.1.15 (KHTML, like Gecko) Mobile/15E148","343","597","240","","null","<div style=""font-size:60px;"">+</div>","null","fixation","","","","","","","","","","","",""
"html-button-response","21","28847","0.0-2.0-1.9","1080","23","pre","8","afternoon","2026-05-20","2026-06-03","2026-05-27T16:16:14.119Z","Mozilla/5.0 (iPhone; CPU iPhone OS 18_5 like Mac OS X) AppleWebKit/605.1.15 (KHTML, like Gecko) Mobile/15E148","343","597","240","","1179","<div class=""prompt"" style=""font-size:24px; margin-bottom:20px;"">Which word describes you more?</div>","1","pairing","10","menace","peaceful","PosNeg","8","80","negative","positive","72","peaceful","right","true"
"html-keyboard-response","22","29650","0.0-2.0-0.10","1080","23","pre","8","afternoon","2026-05-20","2026-06-03","2026-05-27T16:16:14.119Z","Mozilla/5.0 (iPhone; CPU iPhone OS 18_5 like Mac OS X) AppleWebKit/605.1.15 (KHTML, like Gecko) Mobile/15E148","343","597","240","","null","<div style=""font-size:60px;"">+</div>","null","fixation","","","","","","","","","","","",""
"html-button-response","23","30498","0.0-2.0-1.10","1080","23","pre","8","afternoon","2026-05-20","2026-06-03","2026-05-27T16:16:14.119Z","Mozilla/5.0 (iPhone; CPU iPhone OS 18_5 like Mac OS X) AppleWebKit/605.1.15 (KHTML, like Gecko) Mobile/15E148","343","597","240","","846","<div class=""prompt"" style=""font-size:24px; margin-bottom:20px;"">Which word describes you more?</div>","1","pairing","11","expert","easygoing","PosPos","12","91","positive","positive","79","easygoing","right","true"
"html-keyboard-response","24","31301","0.0-2.0-0.11","1080","23","pre","8","afternoon","2026-05-20","2026-06-03","2026-05-27T16:16:14.119Z","Mozilla/5.0 (iPhone; CPU iPhone OS 18_5 like Mac OS X) AppleWebKit/605.1.15 (KHTML, like Gecko) Mobile/15E148","343","597","240","","null","<div style=""font-size:60px;"">+</div>","null","fixation","","","","","","","","","","","",""
"html-button-response","25","32332","0.0-2.0-1.11","1080","23","pre","8","afternoon","2026-05-20","2026-06-03","2026-05-27T16:16:14.119Z","Mozilla/5.0 (iPhone; CPU iPhone OS 18_5 like Mac OS X) AppleWebKit/605.1.15 (KHTML, like Gecko) Mobile/15E148","343","597","240","","1029","<div class=""prompt"" style=""font-size:24px; margin-bottom:20px;"">Which word describes you more?</div>","1","pairing","12","degenerate","carefree","PosNeg","19","62","negative","positive","43","carefree","right","true"
"html-keyboard-response","26","33137","0.0-2.0-0.12","1080","23","pre","8","afternoon","2026-05-20","2026-06-03","2026-05-27T16:16:14.119Z","Mozilla/5.0 (iPhone; CPU iPhone OS 18_5 like Mac OS X) AppleWebKit/605.1.15 (KHTML, like Gecko) Mobile/15E148","343","597","240","","null","<div style=""font-size:60px;"">+</div>","null","fixation","","","","","","","","","","","",""
"html-button-response","27","33867","0.0-2.0-1.12","1080","23","pre","8","afternoon","2026-05-20","2026-06-03","2026-05-27T16:16:14.119Z","Mozilla/5.0 (iPhone; CPU iPhone OS 18_5 like Mac OS X) AppleWebKit/605.1.15 (KHTML, like Gecko) Mobile/15E148","343","597","240","","727","<div class=""prompt"" style=""font-size:24px; margin-bottom:20px;"">Which word describes you more?</div>","0","pairing","13","anxious","unique","PosNeg","90","21","negative","positive","69","anxious","left","true"
"html-keyboard-response","28","34669","0.0-2.0-0.13","1080","23","pre","8","afternoon","2026-05-20","2026-06-03","2026-05-27T16:16:14.119Z","Mozilla/5.0 (iPhone; CPU iPhone OS 18_5 like Mac OS X) AppleWebKit/605.1.15 (KHTML, like Gecko) Mobile/15E148","343","597","240","","null","<div style=""font-size:60px;"">+</div>","null","fixation","","","","","","","","","","","",""
"html-button-response","29","35534","0.0-2.0-1.13","1080","23","pre","8","afternoon","2026-05-20","2026-06-03","2026-05-27T16:16:14.119Z","Mozilla/5.0 (iPhone; CPU iPhone OS 18_5 like Mac OS X) AppleWebKit/605.1.15 (KHTML, like Gecko) Mobile/15E148","343","597","240","","862","<div class=""prompt"" style=""font-size:24px; margin-bottom:20px;"">Which word describes you more?</div>","0","pairing","14","anxious","wise","PosNeg","90","43","negative","positive","47","anxious","left","true"
"html-keyboard-response","30","36336","0.0-2.0-0.14","1080","23","pre","8","afternoon","2026-05-20","2026-06-03","2026-05-27T16:16:14.119Z","Mozilla/5.0 (iPhone; CPU iPhone OS 18_5 like Mac OS X) AppleWebKit/605.1.15 (KHTML, like Gecko) Mobile/15E148","343","597","240","","null","<div style=""font-size:60px;"">+</div>","null","fixation","","","","","","","","","","","",""
"html-button-response","31","37285","0.0-2.0-1.14","1080","23","pre","8","afternoon","2026-05-20","2026-06-03","2026-05-27T16:16:14.119Z","Mozilla/5.0 (iPhone; CPU iPhone OS 18_5 like Mac OS X) AppleWebKit/605.1.15 (KHTML, like Gecko) Mobile/15E148","343","597","240","","946","<div class=""prompt"" style=""font-size:24px; margin-bottom:20px;"">Which word describes you more?</div>","0","pairing","15","carefree","deceitful","PosNeg","62","18","positive","negative","44","carefree","left","true"
"html-keyboard-response","32","38088","0.0-2.0-0.15","1080","23","pre","8","afternoon","2026-05-20","2026-06-03","2026-05-27T16:16:14.119Z","Mozilla/5.0 (iPhone; CPU iPhone OS 18_5 like Mac OS X) AppleWebKit/605.1.15 (KHTML, like Gecko) Mobile/15E148","343","597","240","","null","<div style=""font-size:60px;"">+</div>","null","fixation","","","","","","","","","","","",""
"html-button-response","33","39019","0.0-2.0-1.15","1080","23","pre","8","afternoon","2026-05-20","2026-06-03","2026-05-27T16:16:14.119Z","Mozilla/5.0 (iPhone; CPU iPhone OS 18_5 like Mac OS X) AppleWebKit/605.1.15 (KHTML, like Gecko) Mobile/15E148","343","597","240","","929","<div class=""prompt"" style=""font-size:24px; margin-bottom:20px;"">Which word describes you more?</div>","1","pairing","16","expert","insecure","PosNeg","12","84","positive","negative","72","insecure","right","true"
"html-keyboard-response","34","39823","0.0-2.0-0.16","1080","23","pre","8","afternoon","2026-05-20","2026-06-03","2026-05-27T16:16:14.119Z","Mozilla/5.0 (iPhone; CPU iPhone OS 18_5 like Mac OS X) AppleWebKit/605.1.15 (KHTML, like Gecko) Mobile/15E148","343","597","240","","null","<div style=""font-size:60px;"">+</div>","null","fixation","","","","","","","","","","","",""
"html-button-response","35","41387","0.0-2.0-1.16","1080","23","pre","8","afternoon","2026-05-20","2026-06-03","2026-05-27T16:16:14.119Z","Mozilla/5.0 (iPhone; CPU iPhone OS 18_5 like Mac OS X) AppleWebKit/605.1.15 (KHTML, like Gecko) Mobile/15E148","343","597","240","","1562","<div class=""prompt"" style=""font-size:24px; margin-bottom:20px;"">Which word describes you more?</div>","0","pairing","17","irritating","virtuous","PosNeg","33","24","negative","positive","9","irritating","left","true"
"html-keyboard-response","36","42198","0.0-2.0-0.17","1080","23","pre","8","afternoon","2026-05-20","2026-06-03","2026-05-27T16:16:14.119Z","Mozilla/5.0 (iPhone; CPU iPhone OS 18_5 like Mac OS X) AppleWebKit/605.1.15 (KHTML, like Gecko) Mobile/15E148","343","597","240","","null","<div style=""font-size:60px;"">+</div>","null","fixation","","","","","","","","","","","",""
"html-button-response","37","43322","0.0-2.0-1.17","1080","23","pre","8","afternoon","2026-05-20","2026-06-03","2026-05-27T16:16:14.119Z","Mozilla/5.0 (iPhone; CPU iPhone OS 18_5 like Mac OS X) AppleWebKit/605.1.15 (KHTML, like Gecko) Mobile/15E148","343","597","240","","1120","<div class=""prompt"" style=""font-size:24px; margin-bottom:20px;"">Which word describes you more?</div>","0","pairing","18","visionary","disgrace","PosNeg","34","51","positive","negative","17","visionary","left","true"
"html-keyboard-response","38","44125","0.0-2.0-0.18","1080","23","pre","8","afternoon","2026-05-20","2026-06-03","2026-05-27T16:16:14.119Z","Mozilla/5.0 (iPhone; CPU iPhone OS 18_5 like Mac OS X) AppleWebKit/605.1.15 (KHTML, like Gecko) Mobile/15E148","343","597","240","","null","<div style=""font-size:60px;"">+</div>","null","fixation","","","","","","","","","","","",""
"html-button-response","39","44870","0.0-2.0-1.18","1080","23","pre","8","afternoon","2026-05-20","2026-06-03","2026-05-27T16:16:14.119Z","Mozilla/5.0 (iPhone; CPU iPhone OS 18_5 like Mac OS X) AppleWebKit/605.1.15 (KHTML, like Gecko) Mobile/15E148","343","597","240","","742","<div class=""prompt"" style=""font-size:24px; margin-bottom:20px;"">Which word describes you more?</div>","0","pairing","19","stingy","enthusiastic","PosNeg","35","49","negative","positive","14","stingy","left","true"
"html-keyboard-response","40","45672","0.0-2.0-0.19","1080","23","pre","8","afternoon","2026-05-20","2026-06-03","2026-05-27T16:16:14.119Z","Mozilla/5.0 (iPhone; CPU iPhone OS 18_5 like Mac OS X) AppleWebKit/605.1.15 (KHTML, like Gecko) Mobile/15E148","343","597","240","","null","<div style=""font-size:60px;"">+</div>","null","fixation","","","","","","","","","","","",""
"html-button-response","41","46672","0.0-2.0-1.19","1080","23","pre","8","afternoon","2026-05-20","2026-06-03","2026-05-27T16:16:14.119Z","Mozilla/5.0 (iPhone; CPU iPhone OS 18_5 like Mac OS X) AppleWebKit/605.1.15 (KHTML, like Gecko) Mobile/15E148","343","597","240","","998","<div class=""prompt"" style=""font-size:24px; margin-bottom:20px;"">Which word describes you more?</div>","1","pairing","20","wise","insecure","PosNeg","43","84","positive","negative","41","insecure","right","true"
"html-keyboard-response","42","47474","0.0-2.0-0.20","1080","23","pre","8","afternoon","2026-05-20","2026-06-03","2026-05-27T16:16:14.119Z","Mozilla/5.0 (iPhone; CPU iPhone OS 18_5 like Mac OS X) AppleWebKit/605.1.15 (KHTML, like Gecko) Mobile/15E148","343","597","240","","null","<div style=""font-size:60px;"">+</div>","null","fixation","","","","","","","","","","","",""
"html-button-response","43","48257","0.0-2.0-1.20","1080","23","pre","8","afternoon","2026-05-20","2026-06-03","2026-05-27T16:16:14.119Z","Mozilla/5.0 (iPhone; CPU iPhone OS 18_5 like Mac OS X) AppleWebKit/605.1.15 (KHTML, like Gecko) Mobile/15E148","343","597","240","","780","<div class=""prompt"" style=""font-size:24px; margin-bottom:20px;"">Which word describes you more?</div>","0","pairing","21","goodwilled","alluring","PosPos","100","22","positive","positive","78","goodwilled","left","true"
"html-keyboard-response","44","49059","0.0-2.0-0.21","1080","23","pre","8","afternoon","2026-05-20","2026-06-03","2026-05-27T16:16:14.119Z","Mozilla/5.0 (iPhone; CPU iPhone OS 18_5 like Mac OS X) AppleWebKit/605.1.15 (KHTML, like Gecko) Mobile/15E148","343","597","240","","null","<div style=""font-size:60px;"">+</div>","null","fixation","","","","","","","","","","","",""
"html-button-response","45","51291","0.0-2.0-1.21","1080","23","pre","8","afternoon","2026-05-20","2026-06-03","2026-05-27T16:16:14.119Z","Mozilla/5.0 (iPhone; CPU iPhone OS 18_5 like Mac OS X) AppleWebKit/605.1.15 (KHTML, like Gecko) Mobile/15E148","343","597","240","","2230","<div class=""prompt"" style=""font-size:24px; margin-bottom:20px;"">Which word describes you more?</div>","0","pairing","22","insecure","awful","NegNeg","84","9","negative","negative","75","insecure","left","true"
"html-keyboard-response","46","52094","0.0-2.0-0.22","1080","23","pre","8","afternoon","2026-05-20","2026-06-03","2026-05-27T16:16:14.119Z","Mozilla/5.0 (iPhone; CPU iPhone OS 18_5 like Mac OS X) AppleWebKit/605.1.15 (KHTML, like Gecko) Mobile/15E148","343","597","240","","null","<div style=""font-size:60px;"">+</div>","null","fixation","","","","","","","","","","","",""
"html-button-response","47","54273","0.0-2.0-1.22","1080","23","pre","8","afternoon","2026-05-20","2026-06-03","2026-05-27T16:16:14.119Z","Mozilla/5.0 (iPhone; CPU iPhone OS 18_5 like Mac OS X) AppleWebKit/605.1.15 (KHTML, like Gecko) Mobile/15E148","343","597","240","","2176","<div class=""prompt"" style=""font-size:24px; margin-bottom:20px;"">Which word describes you more?</div>","1","pairing","23","successful","clever","PosPos","65","57","positive","positive","8","clever","right","true"
"html-keyboard-response","48","55075","0.0-2.0-0.23","1080","23","pre","8","afternoon","2026-05-20","2026-06-03","2026-05-27T16:16:14.119Z","Mozilla/5.0 (iPhone; CPU iPhone OS 18_5 like Mac OS X) AppleWebKit/605.1.15 (KHTML, like Gecko) Mobile/15E148","343","597","240","","null","<div style=""font-size:60px;"">+</div>","null","fixation","","","","","","","","","","","",""
"html-button-response","49","56877","0.0-2.0-1.23","1080","23","pre","8","afternoon","2026-05-20","2026-06-03","2026-05-27T16:16:14.119Z","Mozilla/5.0 (iPhone; CPU iPhone OS 18_5 like Mac OS X) AppleWebKit/605.1.15 (KHTML, like Gecko) Mobile/15E148","343","597","240","","1800","<div class=""prompt"" style=""font-size:24px; margin-bottom:20px;"">Which word describes you more?</div>","0","pairing","24","untrustworthy","unforgivable","NegNeg","9","0","negative","negative","9","untrustworthy","left","true"
"instructions","50","57763","0.0-3.0","1080","23","pre","8","afternoon","2026-05-20","2026-06-03","2026-05-27T16:16:14.119Z","Mozilla/5.0 (iPhone; CPU iPhone OS 18_5 like Mac OS X) AppleWebKit/605.1.15 (KHTML, like Gecko) Mobile/15E148","343","597","240","[{""page_index"":0,""viewing_time"":882}]","884","","","","","","","","","","","","","","",""
