"trial_type","trial_index","time_elapsed","internal_node_id","PUNS_ID","session_number","session_phase","session_day","session_slot","ema_start_date","ema_post_start_date","experiment_start","browser","screen_width","screen_height","timezone_offset","view_history","rt","stimulus","response","which_experiment_phase","trial_number","left_word","right_word","valence","left_base_rating","right_base_rating","left_valence","right_valence","abs_diff","participant_response","chosen_side","valid_response"
"pavlovia","0","1918","0.0-0.0","1044","40","post","4","morning","2026-03-24","2026-04-06","2026-04-09T14:15:12.949Z","Mozilla/5.0 (iPhone; CPU iPhone OS 18_7 like Mac OS X) AppleWebKit/605.1.15 (KHTML, like Gecko) Mobile/15E148","370","647","240","","","","","","","","","","","","","","","","",""
"instructions","1","4569","0.0-1.0","1044","40","post","4","morning","2026-03-24","2026-04-06","2026-04-09T14:15:12.949Z","Mozilla/5.0 (iPhone; CPU iPhone OS 18_7 like Mac OS X) AppleWebKit/605.1.15 (KHTML, like Gecko) Mobile/15E148","370","647","240","[{""page_index"":0,""viewing_time"":1058},{""page_index"":1,""viewing_time"":421},{""page_index"":2,""viewing_time"":549},{""page_index"":3,""viewing_time"":618}]","2647","","","","","","","","","","","","","","",""
"html-keyboard-response","2","5374","0.0-2.0-0.0","1044","40","post","4","morning","2026-03-24","2026-04-06","2026-04-09T14:15:12.949Z","Mozilla/5.0 (iPhone; CPU iPhone OS 18_7 like Mac OS X) AppleWebKit/605.1.15 (KHTML, like Gecko) Mobile/15E148","370","647","240","","null","<div style=""font-size:60px;"">+</div>","null","fixation","","","","","","","","","","","",""
"html-button-response","3","6020","0.0-2.0-1.0","1044","40","post","4","morning","2026-03-24","2026-04-06","2026-04-09T14:15:12.949Z","Mozilla/5.0 (iPhone; CPU iPhone OS 18_7 like Mac OS X) AppleWebKit/605.1.15 (KHTML, like Gecko) Mobile/15E148","370","647","240","","642","<div class=""prompt"" style=""font-size:24px; margin-bottom:20px;"">Which word describes you more?</div>","0","pairing","1","credible","alone","PosNeg","83","94","positive","negative","11","credible","left","true"
"html-keyboard-response","4","6822","0.0-2.0-0.1","1044","40","post","4","morning","2026-03-24","2026-04-06","2026-04-09T14:15:12.949Z","Mozilla/5.0 (iPhone; CPU iPhone OS 18_7 like Mac OS X) AppleWebKit/605.1.15 (KHTML, like Gecko) Mobile/15E148","370","647","240","","null","<div style=""font-size:60px;"">+</div>","null","fixation","","","","","","","","","","","",""
"html-button-response","5","7486","0.0-2.0-1.1","1044","40","post","4","morning","2026-03-24","2026-04-06","2026-04-09T14:15:12.949Z","Mozilla/5.0 (iPhone; CPU iPhone OS 18_7 like Mac OS X) AppleWebKit/605.1.15 (KHTML, like Gecko) Mobile/15E148","370","647","240","","661","<div class=""prompt"" style=""font-size:24px; margin-bottom:20px;"">Which word describes you more?</div>","0","pairing","2","healthy","insecure","PosNeg","69","51","positive","negative","18","healthy","left","true"
"html-keyboard-response","6","8288","0.0-2.0-0.2","1044","40","post","4","morning","2026-03-24","2026-04-06","2026-04-09T14:15:12.949Z","Mozilla/5.0 (iPhone; CPU iPhone OS 18_7 like Mac OS X) AppleWebKit/605.1.15 (KHTML, like Gecko) Mobile/15E148","370","647","240","","null","<div style=""font-size:60px;"">+</div>","null","fixation","","","","","","","","","","","",""
"html-button-response","7","9259","0.0-2.0-1.2","1044","40","post","4","morning","2026-03-24","2026-04-06","2026-04-09T14:15:12.949Z","Mozilla/5.0 (iPhone; CPU iPhone OS 18_7 like Mac OS X) AppleWebKit/605.1.15 (KHTML, like Gecko) Mobile/15E148","370","647","240","","968","<div class=""prompt"" style=""font-size:24px; margin-bottom:20px;"">Which word describes you more?</div>","1","pairing","3","bully","champion","PosNeg","3","94","negative","positive","91","champion","right","true"
"html-keyboard-response","8","10061","0.0-2.0-0.3","1044","40","post","4","morning","2026-03-24","2026-04-06","2026-04-09T14:15:12.949Z","Mozilla/5.0 (iPhone; CPU iPhone OS 18_7 like Mac OS X) AppleWebKit/605.1.15 (KHTML, like Gecko) Mobile/15E148","370","647","240","","null","<div style=""font-size:60px;"">+</div>","null","fixation","","","","","","","","","","","",""
"html-button-response","9","11243","0.0-2.0-1.3","1044","40","post","4","morning","2026-03-24","2026-04-06","2026-04-09T14:15:12.949Z","Mozilla/5.0 (iPhone; CPU iPhone OS 18_7 like Mac OS X) AppleWebKit/605.1.15 (KHTML, like Gecko) Mobile/15E148","370","647","240","","1180","<div class=""prompt"" style=""font-size:24px; margin-bottom:20px;"">Which word describes you more?</div>","0","pairing","4","healthy","devoted","PosPos","69","85","positive","positive","16","healthy","left","true"
"html-keyboard-response","10","12046","0.0-2.0-0.4","1044","40","post","4","morning","2026-03-24","2026-04-06","2026-04-09T14:15:12.949Z","Mozilla/5.0 (iPhone; CPU iPhone OS 18_7 like Mac OS X) AppleWebKit/605.1.15 (KHTML, like Gecko) Mobile/15E148","370","647","240","","null","<div style=""font-size:60px;"">+</div>","null","fixation","","","","","","","","","","","",""
"html-button-response","11","13120","0.0-2.0-1.4","1044","40","post","4","morning","2026-03-24","2026-04-06","2026-04-09T14:15:12.949Z","Mozilla/5.0 (iPhone; CPU iPhone OS 18_7 like Mac OS X) AppleWebKit/605.1.15 (KHTML, like Gecko) Mobile/15E148","370","647","240","","1073","<div class=""prompt"" style=""font-size:24px; margin-bottom:20px;"">Which word describes you more?</div>","0","pairing","5","inadequate","uninvited","NegNeg","23","31","negative","negative","8","inadequate","left","true"
"html-keyboard-response","12","13922","0.0-2.0-0.5","1044","40","post","4","morning","2026-03-24","2026-04-06","2026-04-09T14:15:12.949Z","Mozilla/5.0 (iPhone; CPU iPhone OS 18_7 like Mac OS X) AppleWebKit/605.1.15 (KHTML, like Gecko) Mobile/15E148","370","647","240","","null","<div style=""font-size:60px;"">+</div>","null","fixation","","","","","","","","","","","",""
"html-button-response","13","14536","0.0-2.0-1.5","1044","40","post","4","morning","2026-03-24","2026-04-06","2026-04-09T14:15:12.949Z","Mozilla/5.0 (iPhone; CPU iPhone OS 18_7 like Mac OS X) AppleWebKit/605.1.15 (KHTML, like Gecko) Mobile/15E148","370","647","240","","612","<div class=""prompt"" style=""font-size:24px; margin-bottom:20px;"">Which word describes you more?</div>","0","pairing","6","adventurous","idealistic","PosPos","99","74","positive","positive","25","adventurous","left","true"
"html-keyboard-response","14","15339","0.0-2.0-0.6","1044","40","post","4","morning","2026-03-24","2026-04-06","2026-04-09T14:15:12.949Z","Mozilla/5.0 (iPhone; CPU iPhone OS 18_7 like Mac OS X) AppleWebKit/605.1.15 (KHTML, like Gecko) Mobile/15E148","370","647","240","","null","<div style=""font-size:60px;"">+</div>","null","fixation","","","","","","","","","","","",""
"html-button-response","15","16262","0.0-2.0-1.6","1044","40","post","4","morning","2026-03-24","2026-04-06","2026-04-09T14:15:12.949Z","Mozilla/5.0 (iPhone; CPU iPhone OS 18_7 like Mac OS X) AppleWebKit/605.1.15 (KHTML, like Gecko) Mobile/15E148","370","647","240","","922","<div class=""prompt"" style=""font-size:24px; margin-bottom:20px;"">Which word describes you more?</div>","0","pairing","7","insecure","burden","NegNeg","51","10","negative","negative","41","insecure","left","true"
"html-keyboard-response","16","17065","0.0-2.0-0.7","1044","40","post","4","morning","2026-03-24","2026-04-06","2026-04-09T14:15:12.949Z","Mozilla/5.0 (iPhone; CPU iPhone OS 18_7 like Mac OS X) AppleWebKit/605.1.15 (KHTML, like Gecko) Mobile/15E148","370","647","240","","null","<div style=""font-size:60px;"">+</div>","null","fixation","","","","","","","","","","","",""
"html-button-response","17","17954","0.0-2.0-1.7","1044","40","post","4","morning","2026-03-24","2026-04-06","2026-04-09T14:15:12.949Z","Mozilla/5.0 (iPhone; CPU iPhone OS 18_7 like Mac OS X) AppleWebKit/605.1.15 (KHTML, like Gecko) Mobile/15E148","370","647","240","","886","<div class=""prompt"" style=""font-size:24px; margin-bottom:20px;"">Which word describes you more?</div>","0","pairing","8","brave","committed","PosPos","74","94","positive","positive","20","brave","left","true"
"html-keyboard-response","18","18756","0.0-2.0-0.8","1044","40","post","4","morning","2026-03-24","2026-04-06","2026-04-09T14:15:12.949Z","Mozilla/5.0 (iPhone; CPU iPhone OS 18_7 like Mac OS X) AppleWebKit/605.1.15 (KHTML, like Gecko) Mobile/15E148","370","647","240","","null","<div style=""font-size:60px;"">+</div>","null","fixation","","","","","","","","","","","",""
"html-button-response","19","19477","0.0-2.0-1.8","1044","40","post","4","morning","2026-03-24","2026-04-06","2026-04-09T14:15:12.949Z","Mozilla/5.0 (iPhone; CPU iPhone OS 18_7 like Mac OS X) AppleWebKit/605.1.15 (KHTML, like Gecko) Mobile/15E148","370","647","240","","719","<div class=""prompt"" style=""font-size:24px; margin-bottom:20px;"">Which word describes you more?</div>","1","pairing","9","liar","adorable","PosNeg","15","91","negative","positive","76","adorable","right","true"
"html-keyboard-response","20","20279","0.0-2.0-0.9","1044","40","post","4","morning","2026-03-24","2026-04-06","2026-04-09T14:15:12.949Z","Mozilla/5.0 (iPhone; CPU iPhone OS 18_7 like Mac OS X) AppleWebKit/605.1.15 (KHTML, like Gecko) Mobile/15E148","370","647","240","","null","<div style=""font-size:60px;"">+</div>","null","fixation","","","","","","","","","","","",""
"html-button-response","21","21296","0.0-2.0-1.9","1044","40","post","4","morning","2026-03-24","2026-04-06","2026-04-09T14:15:12.949Z","Mozilla/5.0 (iPhone; CPU iPhone OS 18_7 like Mac OS X) AppleWebKit/605.1.15 (KHTML, like Gecko) Mobile/15E148","370","647","240","","1015","<div class=""prompt"" style=""font-size:24px; margin-bottom:20px;"">Which word describes you more?</div>","1","pairing","10","disloyal","learner","PosNeg","17","79","negative","positive","62","learner","right","true"
"html-keyboard-response","22","22101","0.0-2.0-0.10","1044","40","post","4","morning","2026-03-24","2026-04-06","2026-04-09T14:15:12.949Z","Mozilla/5.0 (iPhone; CPU iPhone OS 18_7 like Mac OS X) AppleWebKit/605.1.15 (KHTML, like Gecko) Mobile/15E148","370","647","240","","null","<div style=""font-size:60px;"">+</div>","null","fixation","","","","","","","","","","","",""
"html-button-response","23","22895","0.0-2.0-1.10","1044","40","post","4","morning","2026-03-24","2026-04-06","2026-04-09T14:15:12.949Z","Mozilla/5.0 (iPhone; CPU iPhone OS 18_7 like Mac OS X) AppleWebKit/605.1.15 (KHTML, like Gecko) Mobile/15E148","370","647","240","","792","<div class=""prompt"" style=""font-size:24px; margin-bottom:20px;"">Which word describes you more?</div>","0","pairing","11","anxious","energetic","PosNeg","81","92","negative","positive","11","anxious","left","true"
"html-keyboard-response","24","23698","0.0-2.0-0.11","1044","40","post","4","morning","2026-03-24","2026-04-06","2026-04-09T14:15:12.949Z","Mozilla/5.0 (iPhone; CPU iPhone OS 18_7 like Mac OS X) AppleWebKit/605.1.15 (KHTML, like Gecko) Mobile/15E148","370","647","240","","null","<div style=""font-size:60px;"">+</div>","null","fixation","","","","","","","","","","","",""
"html-button-response","25","24622","0.0-2.0-1.11","1044","40","post","4","morning","2026-03-24","2026-04-06","2026-04-09T14:15:12.949Z","Mozilla/5.0 (iPhone; CPU iPhone OS 18_7 like Mac OS X) AppleWebKit/605.1.15 (KHTML, like Gecko) Mobile/15E148","370","647","240","","923","<div class=""prompt"" style=""font-size:24px; margin-bottom:20px;"">Which word describes you more?</div>","0","pairing","12","miserable","honest","PosNeg","8","96","negative","positive","88","miserable","left","true"
"html-keyboard-response","26","25424","0.0-2.0-0.12","1044","40","post","4","morning","2026-03-24","2026-04-06","2026-04-09T14:15:12.949Z","Mozilla/5.0 (iPhone; CPU iPhone OS 18_7 like Mac OS X) AppleWebKit/605.1.15 (KHTML, like Gecko) Mobile/15E148","370","647","240","","null","<div style=""font-size:60px;"">+</div>","null","fixation","","","","","","","","","","","",""
"html-button-response","27","26305","0.0-2.0-1.12","1044","40","post","4","morning","2026-03-24","2026-04-06","2026-04-09T14:15:12.949Z","Mozilla/5.0 (iPhone; CPU iPhone OS 18_7 like Mac OS X) AppleWebKit/605.1.15 (KHTML, like Gecko) Mobile/15E148","370","647","240","","880","<div class=""prompt"" style=""font-size:24px; margin-bottom:20px;"">Which word describes you more?</div>","0","pairing","13","regretful","unbearable","NegNeg","26","8","negative","negative","18","regretful","left","true"
"html-keyboard-response","28","27107","0.0-2.0-0.13","1044","40","post","4","morning","2026-03-24","2026-04-06","2026-04-09T14:15:12.949Z","Mozilla/5.0 (iPhone; CPU iPhone OS 18_7 like Mac OS X) AppleWebKit/605.1.15 (KHTML, like Gecko) Mobile/15E148","370","647","240","","null","<div style=""font-size:60px;"">+</div>","null","fixation","","","","","","","","","","","",""
"html-button-response","29","28197","0.0-2.0-1.13","1044","40","post","4","morning","2026-03-24","2026-04-06","2026-04-09T14:15:12.949Z","Mozilla/5.0 (iPhone; CPU iPhone OS 18_7 like Mac OS X) AppleWebKit/605.1.15 (KHTML, like Gecko) Mobile/15E148","370","647","240","","1088","<div class=""prompt"" style=""font-size:24px; margin-bottom:20px;"">Which word describes you more?</div>","0","pairing","14","eloquent","smiley","PosPos","80","94","positive","positive","14","eloquent","left","true"
"html-keyboard-response","30","28998","0.0-2.0-0.14","1044","40","post","4","morning","2026-03-24","2026-04-06","2026-04-09T14:15:12.949Z","Mozilla/5.0 (iPhone; CPU iPhone OS 18_7 like Mac OS X) AppleWebKit/605.1.15 (KHTML, like Gecko) Mobile/15E148","370","647","240","","null","<div style=""font-size:60px;"">+</div>","null","fixation","","","","","","","","","","","",""
"html-button-response","31","29864","0.0-2.0-1.14","1044","40","post","4","morning","2026-03-24","2026-04-06","2026-04-09T14:15:12.949Z","Mozilla/5.0 (iPhone; CPU iPhone OS 18_7 like Mac OS X) AppleWebKit/605.1.15 (KHTML, like Gecko) Mobile/15E148","370","647","240","","864","<div class=""prompt"" style=""font-size:24px; margin-bottom:20px;"">Which word describes you more?</div>","0","pairing","15","thoughtful","carefree","PosPos","91","90","positive","positive","1","thoughtful","left","true"
"html-keyboard-response","32","30667","0.0-2.0-0.15","1044","40","post","4","morning","2026-03-24","2026-04-06","2026-04-09T14:15:12.949Z","Mozilla/5.0 (iPhone; CPU iPhone OS 18_7 like Mac OS X) AppleWebKit/605.1.15 (KHTML, like Gecko) Mobile/15E148","370","647","240","","null","<div style=""font-size:60px;"">+</div>","null","fixation","","","","","","","","","","","",""
"html-button-response","33","33264","0.0-2.0-1.15","1044","40","post","4","morning","2026-03-24","2026-04-06","2026-04-09T14:15:12.949Z","Mozilla/5.0 (iPhone; CPU iPhone OS 18_7 like Mac OS X) AppleWebKit/605.1.15 (KHTML, like Gecko) Mobile/15E148","370","647","240","","2589","<div class=""prompt"" style=""font-size:24px; margin-bottom:20px;"">Which word describes you more?</div>","1","pairing","16","wise","credible","PosPos","90","83","positive","positive","7","credible","right","true"
"html-keyboard-response","34","34067","0.0-2.0-0.16","1044","40","post","4","morning","2026-03-24","2026-04-06","2026-04-09T14:15:12.949Z","Mozilla/5.0 (iPhone; CPU iPhone OS 18_7 like Mac OS X) AppleWebKit/605.1.15 (KHTML, like Gecko) Mobile/15E148","370","647","240","","null","<div style=""font-size:60px;"">+</div>","null","fixation","","","","","","","","","","","",""
"html-button-response","35","37024","0.0-2.0-1.16","1044","40","post","4","morning","2026-03-24","2026-04-06","2026-04-09T14:15:12.949Z","Mozilla/5.0 (iPhone; CPU iPhone OS 18_7 like Mac OS X) AppleWebKit/605.1.15 (KHTML, like Gecko) Mobile/15E148","370","647","240","","2954","<div class=""prompt"" style=""font-size:24px; margin-bottom:20px;"">Which word describes you more?</div>","1","pairing","17","loser","devoted","PosNeg","25","85","negative","positive","60","devoted","right","true"
"html-keyboard-response","36","37827","0.0-2.0-0.17","1044","40","post","4","morning","2026-03-24","2026-04-06","2026-04-09T14:15:12.949Z","Mozilla/5.0 (iPhone; CPU iPhone OS 18_7 like Mac OS X) AppleWebKit/605.1.15 (KHTML, like Gecko) Mobile/15E148","370","647","240","","null","<div style=""font-size:60px;"">+</div>","null","fixation","","","","","","","","","","","",""
"html-button-response","37","38833","0.0-2.0-1.17","1044","40","post","4","morning","2026-03-24","2026-04-06","2026-04-09T14:15:12.949Z","Mozilla/5.0 (iPhone; CPU iPhone OS 18_7 like Mac OS X) AppleWebKit/605.1.15 (KHTML, like Gecko) Mobile/15E148","370","647","240","","1004","<div class=""prompt"" style=""font-size:24px; margin-bottom:20px;"">Which word describes you more?</div>","1","pairing","18","hateful","alone","NegNeg","10","94","negative","negative","84","alone","right","true"
"html-keyboard-response","38","39635","0.0-2.0-0.18","1044","40","post","4","morning","2026-03-24","2026-04-06","2026-04-09T14:15:12.949Z","Mozilla/5.0 (iPhone; CPU iPhone OS 18_7 like Mac OS X) AppleWebKit/605.1.15 (KHTML, like Gecko) Mobile/15E148","370","647","240","","null","<div style=""font-size:60px;"">+</div>","null","fixation","","","","","","","","","","","",""
"html-button-response","39","40581","0.0-2.0-1.18","1044","40","post","4","morning","2026-03-24","2026-04-06","2026-04-09T14:15:12.949Z","Mozilla/5.0 (iPhone; CPU iPhone OS 18_7 like Mac OS X) AppleWebKit/605.1.15 (KHTML, like Gecko) Mobile/15E148","370","647","240","","942","<div class=""prompt"" style=""font-size:24px; margin-bottom:20px;"">Which word describes you more?</div>","0","pairing","19","blissful","unwanted","PosNeg","71","22","positive","negative","49","blissful","left","true"
"html-keyboard-response","40","41383","0.0-2.0-0.19","1044","40","post","4","morning","2026-03-24","2026-04-06","2026-04-09T14:15:12.949Z","Mozilla/5.0 (iPhone; CPU iPhone OS 18_7 like Mac OS X) AppleWebKit/605.1.15 (KHTML, like Gecko) Mobile/15E148","370","647","240","","null","<div style=""font-size:60px;"">+</div>","null","fixation","","","","","","","","","","","",""
"html-button-response","41","42350","0.0-2.0-1.19","1044","40","post","4","morning","2026-03-24","2026-04-06","2026-04-09T14:15:12.949Z","Mozilla/5.0 (iPhone; CPU iPhone OS 18_7 like Mac OS X) AppleWebKit/605.1.15 (KHTML, like Gecko) Mobile/15E148","370","647","240","","965","<div class=""prompt"" style=""font-size:24px; margin-bottom:20px;"">Which word describes you more?</div>","1","pairing","20","garbage","hesitant","NegNeg","2","37","negative","negative","35","hesitant","right","true"
"html-keyboard-response","42","43151","0.0-2.0-0.20","1044","40","post","4","morning","2026-03-24","2026-04-06","2026-04-09T14:15:12.949Z","Mozilla/5.0 (iPhone; CPU iPhone OS 18_7 like Mac OS X) AppleWebKit/605.1.15 (KHTML, like Gecko) Mobile/15E148","370","647","240","","null","<div style=""font-size:60px;"">+</div>","null","fixation","","","","","","","","","","","",""
"html-button-response","43","43892","0.0-2.0-1.20","1044","40","post","4","morning","2026-03-24","2026-04-06","2026-04-09T14:15:12.949Z","Mozilla/5.0 (iPhone; CPU iPhone OS 18_7 like Mac OS X) AppleWebKit/605.1.15 (KHTML, like Gecko) Mobile/15E148","370","647","240","","739","<div class=""prompt"" style=""font-size:24px; margin-bottom:20px;"">Which word describes you more?</div>","1","pairing","21","alone","entertaining","PosNeg","94","90","negative","positive","4","entertaining","right","true"
"html-keyboard-response","44","44693","0.0-2.0-0.21","1044","40","post","4","morning","2026-03-24","2026-04-06","2026-04-09T14:15:12.949Z","Mozilla/5.0 (iPhone; CPU iPhone OS 18_7 like Mac OS X) AppleWebKit/605.1.15 (KHTML, like Gecko) Mobile/15E148","370","647","240","","null","<div style=""font-size:60px;"">+</div>","null","fixation","","","","","","","","","","","",""
"html-button-response","45","45750","0.0-2.0-1.21","1044","40","post","4","morning","2026-03-24","2026-04-06","2026-04-09T14:15:12.949Z","Mozilla/5.0 (iPhone; CPU iPhone OS 18_7 like Mac OS X) AppleWebKit/605.1.15 (KHTML, like Gecko) Mobile/15E148","370","647","240","","1055","<div class=""prompt"" style=""font-size:24px; margin-bottom:20px;"">Which word describes you more?</div>","0","pairing","22","anxious","stingy","NegNeg","81","13","negative","negative","68","anxious","left","true"
"html-keyboard-response","46","46552","0.0-2.0-0.22","1044","40","post","4","morning","2026-03-24","2026-04-06","2026-04-09T14:15:12.949Z","Mozilla/5.0 (iPhone; CPU iPhone OS 18_7 like Mac OS X) AppleWebKit/605.1.15 (KHTML, like Gecko) Mobile/15E148","370","647","240","","null","<div style=""font-size:60px;"">+</div>","null","fixation","","","","","","","","","","","",""
"html-button-response","47","47675","0.0-2.0-1.22","1044","40","post","4","morning","2026-03-24","2026-04-06","2026-04-09T14:15:12.949Z","Mozilla/5.0 (iPhone; CPU iPhone OS 18_7 like Mac OS X) AppleWebKit/605.1.15 (KHTML, like Gecko) Mobile/15E148","370","647","240","","1121","<div class=""prompt"" style=""font-size:24px; margin-bottom:20px;"">Which word describes you more?</div>","0","pairing","23","virtuous","shameful","PosNeg","90","7","positive","negative","83","virtuous","left","true"
"html-keyboard-response","48","48477","0.0-2.0-0.23","1044","40","post","4","morning","2026-03-24","2026-04-06","2026-04-09T14:15:12.949Z","Mozilla/5.0 (iPhone; CPU iPhone OS 18_7 like Mac OS X) AppleWebKit/605.1.15 (KHTML, like Gecko) Mobile/15E148","370","647","240","","null","<div style=""font-size:60px;"">+</div>","null","fixation","","","","","","","","","","","",""
"html-button-response","49","49340","0.0-2.0-1.23","1044","40","post","4","morning","2026-03-24","2026-04-06","2026-04-09T14:15:12.949Z","Mozilla/5.0 (iPhone; CPU iPhone OS 18_7 like Mac OS X) AppleWebKit/605.1.15 (KHTML, like Gecko) Mobile/15E148","370","647","240","","860","<div class=""prompt"" style=""font-size:24px; margin-bottom:20px;"">Which word describes you more?</div>","1","pairing","24","rude","smart","PosNeg","2","82","negative","positive","80","smart","right","true"
"instructions","50","49951","0.0-3.0","1044","40","post","4","morning","2026-03-24","2026-04-06","2026-04-09T14:15:12.949Z","Mozilla/5.0 (iPhone; CPU iPhone OS 18_7 like Mac OS X) AppleWebKit/605.1.15 (KHTML, like Gecko) Mobile/15E148","370","647","240","[{""page_index"":0,""viewing_time"":608}]","608","","","","","","","","","","","","","","",""
