"trial_type","trial_index","time_elapsed","internal_node_id","PUNS_ID","session_number","session_phase","session_day","session_slot","ema_start_date","ema_post_start_date","experiment_start","browser","screen_width","screen_height","timezone_offset","view_history","rt","stimulus","response","which_experiment_phase","trial_number","left_word","right_word","valence","left_base_rating","right_base_rating","left_valence","right_valence","abs_diff","participant_response","chosen_side","valid_response"
"pavlovia","0","1470","0.0-0.0","1044","3","pre","1","evening","2026-03-24","2026-04-06","2026-03-24T22:14:38.135Z","Mozilla/5.0 (iPhone; CPU iPhone OS 18_7 like Mac OS X) AppleWebKit/605.1.15 (KHTML, like Gecko) Mobile/15E148","370","647","240","","","","","","","","","","","","","","","","",""
"instructions","1","5838","0.0-1.0","1044","3","pre","1","evening","2026-03-24","2026-04-06","2026-03-24T22:14:38.135Z","Mozilla/5.0 (iPhone; CPU iPhone OS 18_7 like Mac OS X) AppleWebKit/605.1.15 (KHTML, like Gecko) Mobile/15E148","370","647","240","[{""page_index"":0,""viewing_time"":1621},{""page_index"":1,""viewing_time"":822},{""page_index"":2,""viewing_time"":1039},{""page_index"":3,""viewing_time"":885}]","4367","","","","","","","","","","","","","","",""
"html-keyboard-response","2","6641","0.0-2.0-0.0","1044","3","pre","1","evening","2026-03-24","2026-04-06","2026-03-24T22:14:38.135Z","Mozilla/5.0 (iPhone; CPU iPhone OS 18_7 like Mac OS X) AppleWebKit/605.1.15 (KHTML, like Gecko) Mobile/15E148","370","647","240","","null","<div style=""font-size:60px;"">+</div>","null","fixation","","","","","","","","","","","",""
"html-button-response","3","8038","0.0-2.0-1.0","1044","3","pre","1","evening","2026-03-24","2026-04-06","2026-03-24T22:14:38.135Z","Mozilla/5.0 (iPhone; CPU iPhone OS 18_7 like Mac OS X) AppleWebKit/605.1.15 (KHTML, like Gecko) Mobile/15E148","370","647","240","","1394","<div class=""prompt"" style=""font-size:24px; margin-bottom:20px;"">Which word describes you more?</div>","1","pairing","1","liar","anxious","NegNeg","7","69","negative","negative","62","anxious","right","true"
"html-keyboard-response","4","8841","0.0-2.0-0.1","1044","3","pre","1","evening","2026-03-24","2026-04-06","2026-03-24T22:14:38.135Z","Mozilla/5.0 (iPhone; CPU iPhone OS 18_7 like Mac OS X) AppleWebKit/605.1.15 (KHTML, like Gecko) Mobile/15E148","370","647","240","","null","<div style=""font-size:60px;"">+</div>","null","fixation","","","","","","","","","","","",""
"html-button-response","5","11343","0.0-2.0-1.1","1044","3","pre","1","evening","2026-03-24","2026-04-06","2026-03-24T22:14:38.135Z","Mozilla/5.0 (iPhone; CPU iPhone OS 18_7 like Mac OS X) AppleWebKit/605.1.15 (KHTML, like Gecko) Mobile/15E148","370","647","240","","2500","<div class=""prompt"" style=""font-size:24px; margin-bottom:20px;"">Which word describes you more?</div>","1","pairing","2","gloomy","empty","NegNeg","2","10","negative","negative","8","empty","right","true"
"html-keyboard-response","6","12145","0.0-2.0-0.2","1044","3","pre","1","evening","2026-03-24","2026-04-06","2026-03-24T22:14:38.135Z","Mozilla/5.0 (iPhone; CPU iPhone OS 18_7 like Mac OS X) AppleWebKit/605.1.15 (KHTML, like Gecko) Mobile/15E148","370","647","240","","null","<div style=""font-size:60px;"">+</div>","null","fixation","","","","","","","","","","","",""
"html-button-response","7","13864","0.0-2.0-1.2","1044","3","pre","1","evening","2026-03-24","2026-04-06","2026-03-24T22:14:38.135Z","Mozilla/5.0 (iPhone; CPU iPhone OS 18_7 like Mac OS X) AppleWebKit/605.1.15 (KHTML, like Gecko) Mobile/15E148","370","647","240","","1717","<div class=""prompt"" style=""font-size:24px; margin-bottom:20px;"">Which word describes you more?</div>","0","pairing","3","burden","unfaithful","NegNeg","34","2","negative","negative","32","burden","left","true"
"html-keyboard-response","8","14666","0.0-2.0-0.3","1044","3","pre","1","evening","2026-03-24","2026-04-06","2026-03-24T22:14:38.135Z","Mozilla/5.0 (iPhone; CPU iPhone OS 18_7 like Mac OS X) AppleWebKit/605.1.15 (KHTML, like Gecko) Mobile/15E148","370","647","240","","null","<div style=""font-size:60px;"">+</div>","null","fixation","","","","","","","","","","","",""
"html-button-response","9","15747","0.0-2.0-1.3","1044","3","pre","1","evening","2026-03-24","2026-04-06","2026-03-24T22:14:38.135Z","Mozilla/5.0 (iPhone; CPU iPhone OS 18_7 like Mac OS X) AppleWebKit/605.1.15 (KHTML, like Gecko) Mobile/15E148","370","647","240","","1080","<div class=""prompt"" style=""font-size:24px; margin-bottom:20px;"">Which word describes you more?</div>","1","pairing","4","unpleasant","excited","PosNeg","5","78","negative","positive","73","excited","right","true"
"html-keyboard-response","10","16550","0.0-2.0-0.4","1044","3","pre","1","evening","2026-03-24","2026-04-06","2026-03-24T22:14:38.135Z","Mozilla/5.0 (iPhone; CPU iPhone OS 18_7 like Mac OS X) AppleWebKit/605.1.15 (KHTML, like Gecko) Mobile/15E148","370","647","240","","null","<div style=""font-size:60px;"">+</div>","null","fixation","","","","","","","","","","","",""
"html-button-response","11","17889","0.0-2.0-1.4","1044","3","pre","1","evening","2026-03-24","2026-04-06","2026-03-24T22:14:38.135Z","Mozilla/5.0 (iPhone; CPU iPhone OS 18_7 like Mac OS X) AppleWebKit/605.1.15 (KHTML, like Gecko) Mobile/15E148","370","647","240","","1337","<div class=""prompt"" style=""font-size:24px; margin-bottom:20px;"">Which word describes you more?</div>","0","pairing","5","healthy","jealous","PosNeg","48","18","positive","negative","30","healthy","left","true"
"html-keyboard-response","12","18692","0.0-2.0-0.5","1044","3","pre","1","evening","2026-03-24","2026-04-06","2026-03-24T22:14:38.135Z","Mozilla/5.0 (iPhone; CPU iPhone OS 18_7 like Mac OS X) AppleWebKit/605.1.15 (KHTML, like Gecko) Mobile/15E148","370","647","240","","null","<div style=""font-size:60px;"">+</div>","null","fixation","","","","","","","","","","","",""
"html-button-response","13","20240","0.0-2.0-1.5","1044","3","pre","1","evening","2026-03-24","2026-04-06","2026-03-24T22:14:38.135Z","Mozilla/5.0 (iPhone; CPU iPhone OS 18_7 like Mac OS X) AppleWebKit/605.1.15 (KHTML, like Gecko) Mobile/15E148","370","647","240","","1546","<div class=""prompt"" style=""font-size:24px; margin-bottom:20px;"">Which word describes you more?</div>","0","pairing","6","anxious","loser","NegNeg","69","0","negative","negative","69","anxious","left","true"
"html-keyboard-response","14","21042","0.0-2.0-0.6","1044","3","pre","1","evening","2026-03-24","2026-04-06","2026-03-24T22:14:38.135Z","Mozilla/5.0 (iPhone; CPU iPhone OS 18_7 like Mac OS X) AppleWebKit/605.1.15 (KHTML, like Gecko) Mobile/15E148","370","647","240","","null","<div style=""font-size:60px;"">+</div>","null","fixation","","","","","","","","","","","",""
"html-button-response","15","22889","0.0-2.0-1.6","1044","3","pre","1","evening","2026-03-24","2026-04-06","2026-03-24T22:14:38.135Z","Mozilla/5.0 (iPhone; CPU iPhone OS 18_7 like Mac OS X) AppleWebKit/605.1.15 (KHTML, like Gecko) Mobile/15E148","370","647","240","","1846","<div class=""prompt"" style=""font-size:24px; margin-bottom:20px;"">Which word describes you more?</div>","0","pairing","7","sensible","hesitant","PosNeg","79","46","positive","negative","33","sensible","left","true"
"html-keyboard-response","16","23692","0.0-2.0-0.7","1044","3","pre","1","evening","2026-03-24","2026-04-06","2026-03-24T22:14:38.135Z","Mozilla/5.0 (iPhone; CPU iPhone OS 18_7 like Mac OS X) AppleWebKit/605.1.15 (KHTML, like Gecko) Mobile/15E148","370","647","240","","null","<div style=""font-size:60px;"">+</div>","null","fixation","","","","","","","","","","","",""
"html-button-response","17","25374","0.0-2.0-1.7","1044","3","pre","1","evening","2026-03-24","2026-04-06","2026-03-24T22:14:38.135Z","Mozilla/5.0 (iPhone; CPU iPhone OS 18_7 like Mac OS X) AppleWebKit/605.1.15 (KHTML, like Gecko) Mobile/15E148","370","647","240","","1677","<div class=""prompt"" style=""font-size:24px; margin-bottom:20px;"">Which word describes you more?</div>","0","pairing","8","unlucky","cruel","NegNeg","50","4","negative","negative","46","unlucky","left","true"
"html-keyboard-response","18","26176","0.0-2.0-0.8","1044","3","pre","1","evening","2026-03-24","2026-04-06","2026-03-24T22:14:38.135Z","Mozilla/5.0 (iPhone; CPU iPhone OS 18_7 like Mac OS X) AppleWebKit/605.1.15 (KHTML, like Gecko) Mobile/15E148","370","647","240","","null","<div style=""font-size:60px;"">+</div>","null","fixation","","","","","","","","","","","",""
"html-button-response","19","28024","0.0-2.0-1.8","1044","3","pre","1","evening","2026-03-24","2026-04-06","2026-03-24T22:14:38.135Z","Mozilla/5.0 (iPhone; CPU iPhone OS 18_7 like Mac OS X) AppleWebKit/605.1.15 (KHTML, like Gecko) Mobile/15E148","370","647","240","","1845","<div class=""prompt"" style=""font-size:24px; margin-bottom:20px;"">Which word describes you more?</div>","1","pairing","9","failure","flawless","PosNeg","30","28","negative","positive","2","flawless","right","true"
"html-keyboard-response","20","28826","0.0-2.0-0.9","1044","3","pre","1","evening","2026-03-24","2026-04-06","2026-03-24T22:14:38.135Z","Mozilla/5.0 (iPhone; CPU iPhone OS 18_7 like Mac OS X) AppleWebKit/605.1.15 (KHTML, like Gecko) Mobile/15E148","370","647","240","","null","<div style=""font-size:60px;"">+</div>","null","fixation","","","","","","","","","","","",""
"html-button-response","21","30343","0.0-2.0-1.9","1044","3","pre","1","evening","2026-03-24","2026-04-06","2026-03-24T22:14:38.135Z","Mozilla/5.0 (iPhone; CPU iPhone OS 18_7 like Mac OS X) AppleWebKit/605.1.15 (KHTML, like Gecko) Mobile/15E148","370","647","240","","1515","<div class=""prompt"" style=""font-size:24px; margin-bottom:20px;"">Which word describes you more?</div>","0","pairing","10","carefree","awkward","PosNeg","38","44","positive","negative","6","carefree","left","true"
"html-keyboard-response","22","31145","0.0-2.0-0.10","1044","3","pre","1","evening","2026-03-24","2026-04-06","2026-03-24T22:14:38.135Z","Mozilla/5.0 (iPhone; CPU iPhone OS 18_7 like Mac OS X) AppleWebKit/605.1.15 (KHTML, like Gecko) Mobile/15E148","370","647","240","","null","<div style=""font-size:60px;"">+</div>","null","fixation","","","","","","","","","","","",""
"html-button-response","23","32372","0.0-2.0-1.10","1044","3","pre","1","evening","2026-03-24","2026-04-06","2026-03-24T22:14:38.135Z","Mozilla/5.0 (iPhone; CPU iPhone OS 18_7 like Mac OS X) AppleWebKit/605.1.15 (KHTML, like Gecko) Mobile/15E148","370","647","240","","1225","<div class=""prompt"" style=""font-size:24px; margin-bottom:20px;"">Which word describes you more?</div>","0","pairing","11","pleased","slob","PosNeg","73","1","positive","negative","72","pleased","left","true"
"html-keyboard-response","24","33175","0.0-2.0-0.11","1044","3","pre","1","evening","2026-03-24","2026-04-06","2026-03-24T22:14:38.135Z","Mozilla/5.0 (iPhone; CPU iPhone OS 18_7 like Mac OS X) AppleWebKit/605.1.15 (KHTML, like Gecko) Mobile/15E148","370","647","240","","null","<div style=""font-size:60px;"">+</div>","null","fixation","","","","","","","","","","","",""
"html-button-response","25","34108","0.0-2.0-1.11","1044","3","pre","1","evening","2026-03-24","2026-04-06","2026-03-24T22:14:38.135Z","Mozilla/5.0 (iPhone; CPU iPhone OS 18_7 like Mac OS X) AppleWebKit/605.1.15 (KHTML, like Gecko) Mobile/15E148","370","647","240","","931","<div class=""prompt"" style=""font-size:24px; margin-bottom:20px;"">Which word describes you more?</div>","0","pairing","12","witty","hater","PosNeg","86","26","positive","negative","60","witty","left","true"
"html-keyboard-response","26","34910","0.0-2.0-0.12","1044","3","pre","1","evening","2026-03-24","2026-04-06","2026-03-24T22:14:38.135Z","Mozilla/5.0 (iPhone; CPU iPhone OS 18_7 like Mac OS X) AppleWebKit/605.1.15 (KHTML, like Gecko) Mobile/15E148","370","647","240","","null","<div style=""font-size:60px;"">+</div>","null","fixation","","","","","","","","","","","",""
"html-button-response","27","35942","0.0-2.0-1.12","1044","3","pre","1","evening","2026-03-24","2026-04-06","2026-03-24T22:14:38.135Z","Mozilla/5.0 (iPhone; CPU iPhone OS 18_7 like Mac OS X) AppleWebKit/605.1.15 (KHTML, like Gecko) Mobile/15E148","370","647","240","","1031","<div class=""prompt"" style=""font-size:24px; margin-bottom:20px;"">Which word describes you more?</div>","1","pairing","13","vermin","anxious","NegNeg","0","69","negative","negative","69","anxious","right","true"
"html-keyboard-response","28","36744","0.0-2.0-0.13","1044","3","pre","1","evening","2026-03-24","2026-04-06","2026-03-24T22:14:38.135Z","Mozilla/5.0 (iPhone; CPU iPhone OS 18_7 like Mac OS X) AppleWebKit/605.1.15 (KHTML, like Gecko) Mobile/15E148","370","647","240","","null","<div style=""font-size:60px;"">+</div>","null","fixation","","","","","","","","","","","",""
"html-button-response","29","37884","0.0-2.0-1.13","1044","3","pre","1","evening","2026-03-24","2026-04-06","2026-03-24T22:14:38.135Z","Mozilla/5.0 (iPhone; CPU iPhone OS 18_7 like Mac OS X) AppleWebKit/605.1.15 (KHTML, like Gecko) Mobile/15E148","370","647","240","","1139","<div class=""prompt"" style=""font-size:24px; margin-bottom:20px;"">Which word describes you more?</div>","1","pairing","14","fraud","respectable","PosNeg","2","77","negative","positive","75","respectable","right","true"
"html-keyboard-response","30","38686","0.0-2.0-0.14","1044","3","pre","1","evening","2026-03-24","2026-04-06","2026-03-24T22:14:38.135Z","Mozilla/5.0 (iPhone; CPU iPhone OS 18_7 like Mac OS X) AppleWebKit/605.1.15 (KHTML, like Gecko) Mobile/15E148","370","647","240","","null","<div style=""font-size:60px;"">+</div>","null","fixation","","","","","","","","","","","",""
"html-button-response","31","39823","0.0-2.0-1.14","1044","3","pre","1","evening","2026-03-24","2026-04-06","2026-03-24T22:14:38.135Z","Mozilla/5.0 (iPhone; CPU iPhone OS 18_7 like Mac OS X) AppleWebKit/605.1.15 (KHTML, like Gecko) Mobile/15E148","370","647","240","","1135","<div class=""prompt"" style=""font-size:24px; margin-bottom:20px;"">Which word describes you more?</div>","0","pairing","15","attractive","flawless","PosPos","100","28","positive","positive","72","attractive","left","true"
"html-keyboard-response","32","40625","0.0-2.0-0.15","1044","3","pre","1","evening","2026-03-24","2026-04-06","2026-03-24T22:14:38.135Z","Mozilla/5.0 (iPhone; CPU iPhone OS 18_7 like Mac OS X) AppleWebKit/605.1.15 (KHTML, like Gecko) Mobile/15E148","370","647","240","","null","<div style=""font-size:60px;"">+</div>","null","fixation","","","","","","","","","","","",""
"html-button-response","33","41917","0.0-2.0-1.15","1044","3","pre","1","evening","2026-03-24","2026-04-06","2026-03-24T22:14:38.135Z","Mozilla/5.0 (iPhone; CPU iPhone OS 18_7 like Mac OS X) AppleWebKit/605.1.15 (KHTML, like Gecko) Mobile/15E148","370","647","240","","1291","<div class=""prompt"" style=""font-size:24px; margin-bottom:20px;"">Which word describes you more?</div>","1","pairing","16","lifeless","pleased","PosNeg","0","73","negative","positive","73","pleased","right","true"
"html-keyboard-response","34","42720","0.0-2.0-0.16","1044","3","pre","1","evening","2026-03-24","2026-04-06","2026-03-24T22:14:38.135Z","Mozilla/5.0 (iPhone; CPU iPhone OS 18_7 like Mac OS X) AppleWebKit/605.1.15 (KHTML, like Gecko) Mobile/15E148","370","647","240","","null","<div style=""font-size:60px;"">+</div>","null","fixation","","","","","","","","","","","",""
"html-button-response","35","44119","0.0-2.0-1.16","1044","3","pre","1","evening","2026-03-24","2026-04-06","2026-03-24T22:14:38.135Z","Mozilla/5.0 (iPhone; CPU iPhone OS 18_7 like Mac OS X) AppleWebKit/605.1.15 (KHTML, like Gecko) Mobile/15E148","370","647","240","","1397","<div class=""prompt"" style=""font-size:24px; margin-bottom:20px;"">Which word describes you more?</div>","0","pairing","17","reliable","idealistic","PosPos","87","37","positive","positive","50","reliable","left","true"
"html-keyboard-response","36","44921","0.0-2.0-0.17","1044","3","pre","1","evening","2026-03-24","2026-04-06","2026-03-24T22:14:38.135Z","Mozilla/5.0 (iPhone; CPU iPhone OS 18_7 like Mac OS X) AppleWebKit/605.1.15 (KHTML, like Gecko) Mobile/15E148","370","647","240","","null","<div style=""font-size:60px;"">+</div>","null","fixation","","","","","","","","","","","",""
"html-button-response","37","45860","0.0-2.0-1.17","1044","3","pre","1","evening","2026-03-24","2026-04-06","2026-03-24T22:14:38.135Z","Mozilla/5.0 (iPhone; CPU iPhone OS 18_7 like Mac OS X) AppleWebKit/605.1.15 (KHTML, like Gecko) Mobile/15E148","370","647","240","","937","<div class=""prompt"" style=""font-size:24px; margin-bottom:20px;"">Which word describes you more?</div>","0","pairing","18","excited","playful","PosPos","78","81","positive","positive","3","excited","left","true"
"html-keyboard-response","38","46662","0.0-2.0-0.18","1044","3","pre","1","evening","2026-03-24","2026-04-06","2026-03-24T22:14:38.135Z","Mozilla/5.0 (iPhone; CPU iPhone OS 18_7 like Mac OS X) AppleWebKit/605.1.15 (KHTML, like Gecko) Mobile/15E148","370","647","240","","null","<div style=""font-size:60px;"">+</div>","null","fixation","","","","","","","","","","","",""
"html-button-response","39","47585","0.0-2.0-1.18","1044","3","pre","1","evening","2026-03-24","2026-04-06","2026-03-24T22:14:38.135Z","Mozilla/5.0 (iPhone; CPU iPhone OS 18_7 like Mac OS X) AppleWebKit/605.1.15 (KHTML, like Gecko) Mobile/15E148","370","647","240","","922","<div class=""prompt"" style=""font-size:24px; margin-bottom:20px;"">Which word describes you more?</div>","1","pairing","19","irresponsible","safe","PosNeg","14","78","negative","positive","64","safe","right","true"
"html-keyboard-response","40","48387","0.0-2.0-0.19","1044","3","pre","1","evening","2026-03-24","2026-04-06","2026-03-24T22:14:38.135Z","Mozilla/5.0 (iPhone; CPU iPhone OS 18_7 like Mac OS X) AppleWebKit/605.1.15 (KHTML, like Gecko) Mobile/15E148","370","647","240","","null","<div style=""font-size:60px;"">+</div>","null","fixation","","","","","","","","","","","",""
"html-button-response","41","49360","0.0-2.0-1.19","1044","3","pre","1","evening","2026-03-24","2026-04-06","2026-03-24T22:14:38.135Z","Mozilla/5.0 (iPhone; CPU iPhone OS 18_7 like Mac OS X) AppleWebKit/605.1.15 (KHTML, like Gecko) Mobile/15E148","370","647","240","","972","<div class=""prompt"" style=""font-size:24px; margin-bottom:20px;"">Which word describes you more?</div>","0","pairing","20","smiley","garbage","PosNeg","70","0","positive","negative","70","smiley","left","true"
"html-keyboard-response","42","50163","0.0-2.0-0.20","1044","3","pre","1","evening","2026-03-24","2026-04-06","2026-03-24T22:14:38.135Z","Mozilla/5.0 (iPhone; CPU iPhone OS 18_7 like Mac OS X) AppleWebKit/605.1.15 (KHTML, like Gecko) Mobile/15E148","370","647","240","","null","<div style=""font-size:60px;"">+</div>","null","fixation","","","","","","","","","","","",""
"html-button-response","43","51402","0.0-2.0-1.20","1044","3","pre","1","evening","2026-03-24","2026-04-06","2026-03-24T22:14:38.135Z","Mozilla/5.0 (iPhone; CPU iPhone OS 18_7 like Mac OS X) AppleWebKit/605.1.15 (KHTML, like Gecko) Mobile/15E148","370","647","240","","1237","<div class=""prompt"" style=""font-size:24px; margin-bottom:20px;"">Which word describes you more?</div>","1","pairing","21","merciful","goodwilled","PosPos","50","90","positive","positive","40","goodwilled","right","true"
"html-keyboard-response","44","52204","0.0-2.0-0.21","1044","3","pre","1","evening","2026-03-24","2026-04-06","2026-03-24T22:14:38.135Z","Mozilla/5.0 (iPhone; CPU iPhone OS 18_7 like Mac OS X) AppleWebKit/605.1.15 (KHTML, like Gecko) Mobile/15E148","370","647","240","","null","<div style=""font-size:60px;"">+</div>","null","fixation","","","","","","","","","","","",""
"html-button-response","45","53528","0.0-2.0-1.21","1044","3","pre","1","evening","2026-03-24","2026-04-06","2026-03-24T22:14:38.135Z","Mozilla/5.0 (iPhone; CPU iPhone OS 18_7 like Mac OS X) AppleWebKit/605.1.15 (KHTML, like Gecko) Mobile/15E148","370","647","240","","1322","<div class=""prompt"" style=""font-size:24px; margin-bottom:20px;"">Which word describes you more?</div>","1","pairing","22","flawless","eloquent","PosPos","28","97","positive","positive","69","eloquent","right","true"
"html-keyboard-response","46","54330","0.0-2.0-0.22","1044","3","pre","1","evening","2026-03-24","2026-04-06","2026-03-24T22:14:38.135Z","Mozilla/5.0 (iPhone; CPU iPhone OS 18_7 like Mac OS X) AppleWebKit/605.1.15 (KHTML, like Gecko) Mobile/15E148","370","647","240","","null","<div style=""font-size:60px;"">+</div>","null","fixation","","","","","","","","","","","",""
"html-button-response","47","55786","0.0-2.0-1.22","1044","3","pre","1","evening","2026-03-24","2026-04-06","2026-03-24T22:14:38.135Z","Mozilla/5.0 (iPhone; CPU iPhone OS 18_7 like Mac OS X) AppleWebKit/605.1.15 (KHTML, like Gecko) Mobile/15E148","370","647","240","","1454","<div class=""prompt"" style=""font-size:24px; margin-bottom:20px;"">Which word describes you more?</div>","1","pairing","23","phony","alluring","PosNeg","7","35","negative","positive","28","alluring","right","true"
"html-keyboard-response","48","56588","0.0-2.0-0.23","1044","3","pre","1","evening","2026-03-24","2026-04-06","2026-03-24T22:14:38.135Z","Mozilla/5.0 (iPhone; CPU iPhone OS 18_7 like Mac OS X) AppleWebKit/605.1.15 (KHTML, like Gecko) Mobile/15E148","370","647","240","","null","<div style=""font-size:60px;"">+</div>","null","fixation","","","","","","","","","","","",""
"html-button-response","49","57637","0.0-2.0-1.23","1044","3","pre","1","evening","2026-03-24","2026-04-06","2026-03-24T22:14:38.135Z","Mozilla/5.0 (iPhone; CPU iPhone OS 18_7 like Mac OS X) AppleWebKit/605.1.15 (KHTML, like Gecko) Mobile/15E148","370","647","240","","1047","<div class=""prompt"" style=""font-size:24px; margin-bottom:20px;"">Which word describes you more?</div>","0","pairing","24","merciful","energetic","PosPos","50","46","positive","positive","4","merciful","left","true"
"instructions","50","59288","0.0-3.0","1044","3","pre","1","evening","2026-03-24","2026-04-06","2026-03-24T22:14:38.135Z","Mozilla/5.0 (iPhone; CPU iPhone OS 18_7 like Mac OS X) AppleWebKit/605.1.15 (KHTML, like Gecko) Mobile/15E148","370","647","240","[{""page_index"":0,""viewing_time"":1649}]","1649","","","","","","","","","","","","","","",""
