"trial_type","trial_index","time_elapsed","internal_node_id","PUNS_ID","session_number","session_phase","session_day","session_slot","ema_start_date","ema_post_start_date","experiment_start","browser","screen_width","screen_height","timezone_offset","view_history","rt","stimulus","response","which_experiment_phase","trial_number","left_word","right_word","valence","left_base_rating","right_base_rating","left_valence","right_valence","abs_diff","participant_response","chosen_side","valid_response"
"pavlovia","0","1818","0.0-0.0","1068","11","pre","4","afternoon","2026-06-09","2026-06-23","2026-06-12T19:09:56.404Z","Mozilla/5.0 (iPhone; CPU iPhone OS 18_6_2 like Mac OS X) AppleWebKit/605.1.15 (KHTML, like Gecko) Mobile/15E148","370","647","240","","","","","","","","","","","","","","","","",""
"instructions","1","5162","0.0-1.0","1068","11","pre","4","afternoon","2026-06-09","2026-06-23","2026-06-12T19:09:56.404Z","Mozilla/5.0 (iPhone; CPU iPhone OS 18_6_2 like Mac OS X) AppleWebKit/605.1.15 (KHTML, like Gecko) Mobile/15E148","370","647","240","[{""page_index"":0,""viewing_time"":1102},{""page_index"":1,""viewing_time"":669},{""page_index"":2,""viewing_time"":866},{""page_index"":3,""viewing_time"":700}]","3339","","","","","","","","","","","","","","",""
"html-keyboard-response","2","5965","0.0-2.0-0.0","1068","11","pre","4","afternoon","2026-06-09","2026-06-23","2026-06-12T19:09:56.404Z","Mozilla/5.0 (iPhone; CPU iPhone OS 18_6_2 like Mac OS X) AppleWebKit/605.1.15 (KHTML, like Gecko) Mobile/15E148","370","647","240","","null","<div style=""font-size:60px;"">+</div>","null","fixation","","","","","","","","","","","",""
"html-button-response","3","7812","0.0-2.0-1.0","1068","11","pre","4","afternoon","2026-06-09","2026-06-23","2026-06-12T19:09:56.404Z","Mozilla/5.0 (iPhone; CPU iPhone OS 18_6_2 like Mac OS X) AppleWebKit/605.1.15 (KHTML, like Gecko) Mobile/15E148","370","647","240","","1842","<div class=""prompt"" style=""font-size:24px; margin-bottom:20px;"">Which word describes you more?</div>","1","pairing","1","degenerate","negligent","NegNeg","5","0","negative","negative","5","negligent","right","true"
"html-keyboard-response","4","8614","0.0-2.0-0.1","1068","11","pre","4","afternoon","2026-06-09","2026-06-23","2026-06-12T19:09:56.404Z","Mozilla/5.0 (iPhone; CPU iPhone OS 18_6_2 like Mac OS X) AppleWebKit/605.1.15 (KHTML, like Gecko) Mobile/15E148","370","647","240","","null","<div style=""font-size:60px;"">+</div>","null","fixation","","","","","","","","","","","",""
"html-button-response","5","9828","0.0-2.0-1.1","1068","11","pre","4","afternoon","2026-06-09","2026-06-23","2026-06-12T19:09:56.404Z","Mozilla/5.0 (iPhone; CPU iPhone OS 18_6_2 like Mac OS X) AppleWebKit/605.1.15 (KHTML, like Gecko) Mobile/15E148","370","647","240","","1209","<div class=""prompt"" style=""font-size:24px; margin-bottom:20px;"">Which word describes you more?</div>","0","pairing","2","bully","violent","NegNeg","0","1","negative","negative","1","bully","left","true"
"html-keyboard-response","6","10630","0.0-2.0-0.2","1068","11","pre","4","afternoon","2026-06-09","2026-06-23","2026-06-12T19:09:56.404Z","Mozilla/5.0 (iPhone; CPU iPhone OS 18_6_2 like Mac OS X) AppleWebKit/605.1.15 (KHTML, like Gecko) Mobile/15E148","370","647","240","","null","<div style=""font-size:60px;"">+</div>","null","fixation","","","","","","","","","","","",""
"html-button-response","7","11594","0.0-2.0-1.2","1068","11","pre","4","afternoon","2026-06-09","2026-06-23","2026-06-12T19:09:56.404Z","Mozilla/5.0 (iPhone; CPU iPhone OS 18_6_2 like Mac OS X) AppleWebKit/605.1.15 (KHTML, like Gecko) Mobile/15E148","370","647","240","","962","<div class=""prompt"" style=""font-size:24px; margin-bottom:20px;"">Which word describes you more?</div>","1","pairing","3","eloquent","healthy","PosPos","89","87","positive","positive","2","healthy","right","true"
"html-keyboard-response","8","12396","0.0-2.0-0.3","1068","11","pre","4","afternoon","2026-06-09","2026-06-23","2026-06-12T19:09:56.404Z","Mozilla/5.0 (iPhone; CPU iPhone OS 18_6_2 like Mac OS X) AppleWebKit/605.1.15 (KHTML, like Gecko) Mobile/15E148","370","647","240","","null","<div style=""font-size:60px;"">+</div>","null","fixation","","","","","","","","","","","",""
"html-button-response","9","13129","0.0-2.0-1.3","1068","11","pre","4","afternoon","2026-06-09","2026-06-23","2026-06-12T19:09:56.404Z","Mozilla/5.0 (iPhone; CPU iPhone OS 18_6_2 like Mac OS X) AppleWebKit/605.1.15 (KHTML, like Gecko) Mobile/15E148","370","647","240","","731","<div class=""prompt"" style=""font-size:24px; margin-bottom:20px;"">Which word describes you more?</div>","0","pairing","4","admired","parasite","PosNeg","90","0","positive","negative","90","admired","left","true"
"html-keyboard-response","10","13931","0.0-2.0-0.4","1068","11","pre","4","afternoon","2026-06-09","2026-06-23","2026-06-12T19:09:56.404Z","Mozilla/5.0 (iPhone; CPU iPhone OS 18_6_2 like Mac OS X) AppleWebKit/605.1.15 (KHTML, like Gecko) Mobile/15E148","370","647","240","","null","<div style=""font-size:60px;"">+</div>","null","fixation","","","","","","","","","","","",""
"html-button-response","11","14712","0.0-2.0-1.4","1068","11","pre","4","afternoon","2026-06-09","2026-06-23","2026-06-12T19:09:56.404Z","Mozilla/5.0 (iPhone; CPU iPhone OS 18_6_2 like Mac OS X) AppleWebKit/605.1.15 (KHTML, like Gecko) Mobile/15E148","370","647","240","","779","<div class=""prompt"" style=""font-size:24px; margin-bottom:20px;"">Which word describes you more?</div>","1","pairing","5","tolerant","helper","PosPos","35","87","positive","positive","52","helper","right","true"
"html-keyboard-response","12","15514","0.0-2.0-0.5","1068","11","pre","4","afternoon","2026-06-09","2026-06-23","2026-06-12T19:09:56.404Z","Mozilla/5.0 (iPhone; CPU iPhone OS 18_6_2 like Mac OS X) AppleWebKit/605.1.15 (KHTML, like Gecko) Mobile/15E148","370","647","240","","null","<div style=""font-size:60px;"">+</div>","null","fixation","","","","","","","","","","","",""
"html-button-response","13","16278","0.0-2.0-1.5","1068","11","pre","4","afternoon","2026-06-09","2026-06-23","2026-06-12T19:09:56.404Z","Mozilla/5.0 (iPhone; CPU iPhone OS 18_6_2 like Mac OS X) AppleWebKit/605.1.15 (KHTML, like Gecko) Mobile/15E148","370","647","240","","762","<div class=""prompt"" style=""font-size:24px; margin-bottom:20px;"">Which word describes you more?</div>","1","pairing","6","toxic","playful","PosNeg","0","82","negative","positive","82","playful","right","true"
"html-keyboard-response","14","17081","0.0-2.0-0.6","1068","11","pre","4","afternoon","2026-06-09","2026-06-23","2026-06-12T19:09:56.404Z","Mozilla/5.0 (iPhone; CPU iPhone OS 18_6_2 like Mac OS X) AppleWebKit/605.1.15 (KHTML, like Gecko) Mobile/15E148","370","647","240","","null","<div style=""font-size:60px;"">+</div>","null","fixation","","","","","","","","","","","",""
"html-button-response","15","17796","0.0-2.0-1.6","1068","11","pre","4","afternoon","2026-06-09","2026-06-23","2026-06-12T19:09:56.404Z","Mozilla/5.0 (iPhone; CPU iPhone OS 18_6_2 like Mac OS X) AppleWebKit/605.1.15 (KHTML, like Gecko) Mobile/15E148","370","647","240","","714","<div class=""prompt"" style=""font-size:24px; margin-bottom:20px;"">Which word describes you more?</div>","0","pairing","7","champion","cooperative","PosPos","95","93","positive","positive","2","champion","left","true"
"html-keyboard-response","16","18600","0.0-2.0-0.7","1068","11","pre","4","afternoon","2026-06-09","2026-06-23","2026-06-12T19:09:56.404Z","Mozilla/5.0 (iPhone; CPU iPhone OS 18_6_2 like Mac OS X) AppleWebKit/605.1.15 (KHTML, like Gecko) Mobile/15E148","370","647","240","","null","<div style=""font-size:60px;"">+</div>","null","fixation","","","","","","","","","","","",""
"html-button-response","17","19447","0.0-2.0-1.7","1068","11","pre","4","afternoon","2026-06-09","2026-06-23","2026-06-12T19:09:56.404Z","Mozilla/5.0 (iPhone; CPU iPhone OS 18_6_2 like Mac OS X) AppleWebKit/605.1.15 (KHTML, like Gecko) Mobile/15E148","370","647","240","","844","<div class=""prompt"" style=""font-size:24px; margin-bottom:20px;"">Which word describes you more?</div>","0","pairing","8","patient","selfish","PosNeg","75","42","positive","negative","33","patient","left","true"
"html-keyboard-response","18","20249","0.0-2.0-0.8","1068","11","pre","4","afternoon","2026-06-09","2026-06-23","2026-06-12T19:09:56.404Z","Mozilla/5.0 (iPhone; CPU iPhone OS 18_6_2 like Mac OS X) AppleWebKit/605.1.15 (KHTML, like Gecko) Mobile/15E148","370","647","240","","null","<div style=""font-size:60px;"">+</div>","null","fixation","","","","","","","","","","","",""
"html-button-response","19","21264","0.0-2.0-1.8","1068","11","pre","4","afternoon","2026-06-09","2026-06-23","2026-06-12T19:09:56.404Z","Mozilla/5.0 (iPhone; CPU iPhone OS 18_6_2 like Mac OS X) AppleWebKit/605.1.15 (KHTML, like Gecko) Mobile/15E148","370","647","240","","1013","<div class=""prompt"" style=""font-size:24px; margin-bottom:20px;"">Which word describes you more?</div>","1","pairing","9","rude","tolerant","PosNeg","2","35","negative","positive","33","tolerant","right","true"
"html-keyboard-response","20","22066","0.0-2.0-0.9","1068","11","pre","4","afternoon","2026-06-09","2026-06-23","2026-06-12T19:09:56.404Z","Mozilla/5.0 (iPhone; CPU iPhone OS 18_6_2 like Mac OS X) AppleWebKit/605.1.15 (KHTML, like Gecko) Mobile/15E148","370","647","240","","null","<div style=""font-size:60px;"">+</div>","null","fixation","","","","","","","","","","","",""
"html-button-response","21","22730","0.0-2.0-1.9","1068","11","pre","4","afternoon","2026-06-09","2026-06-23","2026-06-12T19:09:56.404Z","Mozilla/5.0 (iPhone; CPU iPhone OS 18_6_2 like Mac OS X) AppleWebKit/605.1.15 (KHTML, like Gecko) Mobile/15E148","370","647","240","","662","<div class=""prompt"" style=""font-size:24px; margin-bottom:20px;"">Which word describes you more?</div>","0","pairing","10","idealistic","lifeless","PosNeg","61","0","positive","negative","61","idealistic","left","true"
"html-keyboard-response","22","23533","0.0-2.0-0.10","1068","11","pre","4","afternoon","2026-06-09","2026-06-23","2026-06-12T19:09:56.404Z","Mozilla/5.0 (iPhone; CPU iPhone OS 18_6_2 like Mac OS X) AppleWebKit/605.1.15 (KHTML, like Gecko) Mobile/15E148","370","647","240","","null","<div style=""font-size:60px;"">+</div>","null","fixation","","","","","","","","","","","",""
"html-button-response","23","24614","0.0-2.0-1.10","1068","11","pre","4","afternoon","2026-06-09","2026-06-23","2026-06-12T19:09:56.404Z","Mozilla/5.0 (iPhone; CPU iPhone OS 18_6_2 like Mac OS X) AppleWebKit/605.1.15 (KHTML, like Gecko) Mobile/15E148","370","647","240","","1080","<div class=""prompt"" style=""font-size:24px; margin-bottom:20px;"">Which word describes you more?</div>","1","pairing","11","violent","anxious","NegNeg","1","0","negative","negative","1","anxious","right","true"
"html-keyboard-response","24","25416","0.0-2.0-0.11","1068","11","pre","4","afternoon","2026-06-09","2026-06-23","2026-06-12T19:09:56.404Z","Mozilla/5.0 (iPhone; CPU iPhone OS 18_6_2 like Mac OS X) AppleWebKit/605.1.15 (KHTML, like Gecko) Mobile/15E148","370","647","240","","null","<div style=""font-size:60px;"">+</div>","null","fixation","","","","","","","","","","","",""
"html-button-response","25","26864","0.0-2.0-1.11","1068","11","pre","4","afternoon","2026-06-09","2026-06-23","2026-06-12T19:09:56.404Z","Mozilla/5.0 (iPhone; CPU iPhone OS 18_6_2 like Mac OS X) AppleWebKit/605.1.15 (KHTML, like Gecko) Mobile/15E148","370","647","240","","1446","<div class=""prompt"" style=""font-size:24px; margin-bottom:20px;"">Which word describes you more?</div>","1","pairing","12","unlucky","dull","NegNeg","48","2","negative","negative","46","dull","right","true"
"html-keyboard-response","26","27666","0.0-2.0-0.12","1068","11","pre","4","afternoon","2026-06-09","2026-06-23","2026-06-12T19:09:56.404Z","Mozilla/5.0 (iPhone; CPU iPhone OS 18_6_2 like Mac OS X) AppleWebKit/605.1.15 (KHTML, like Gecko) Mobile/15E148","370","647","240","","null","<div style=""font-size:60px;"">+</div>","null","fixation","","","","","","","","","","","",""
"html-button-response","27","29215","0.0-2.0-1.12","1068","11","pre","4","afternoon","2026-06-09","2026-06-23","2026-06-12T19:09:56.404Z","Mozilla/5.0 (iPhone; CPU iPhone OS 18_6_2 like Mac OS X) AppleWebKit/605.1.15 (KHTML, like Gecko) Mobile/15E148","370","647","240","","1547","<div class=""prompt"" style=""font-size:24px; margin-bottom:20px;"">Which word describes you more?</div>","1","pairing","13","unlucky","companion","PosNeg","48","97","negative","positive","49","companion","right","true"
"html-keyboard-response","28","30017","0.0-2.0-0.13","1068","11","pre","4","afternoon","2026-06-09","2026-06-23","2026-06-12T19:09:56.404Z","Mozilla/5.0 (iPhone; CPU iPhone OS 18_6_2 like Mac OS X) AppleWebKit/605.1.15 (KHTML, like Gecko) Mobile/15E148","370","647","240","","null","<div style=""font-size:60px;"">+</div>","null","fixation","","","","","","","","","","","",""
"html-button-response","29","31199","0.0-2.0-1.13","1068","11","pre","4","afternoon","2026-06-09","2026-06-23","2026-06-12T19:09:56.404Z","Mozilla/5.0 (iPhone; CPU iPhone OS 18_6_2 like Mac OS X) AppleWebKit/605.1.15 (KHTML, like Gecko) Mobile/15E148","370","647","240","","1178","<div class=""prompt"" style=""font-size:24px; margin-bottom:20px;"">Which word describes you more?</div>","1","pairing","14","parasite","asset","PosNeg","0","89","negative","positive","89","asset","right","true"
"html-keyboard-response","30","32002","0.0-2.0-0.14","1068","11","pre","4","afternoon","2026-06-09","2026-06-23","2026-06-12T19:09:56.404Z","Mozilla/5.0 (iPhone; CPU iPhone OS 18_6_2 like Mac OS X) AppleWebKit/605.1.15 (KHTML, like Gecko) Mobile/15E148","370","647","240","","null","<div style=""font-size:60px;"">+</div>","null","fixation","","","","","","","","","","","",""
"html-button-response","31","33032","0.0-2.0-1.14","1068","11","pre","4","afternoon","2026-06-09","2026-06-23","2026-06-12T19:09:56.404Z","Mozilla/5.0 (iPhone; CPU iPhone OS 18_6_2 like Mac OS X) AppleWebKit/605.1.15 (KHTML, like Gecko) Mobile/15E148","370","647","240","","1028","<div class=""prompt"" style=""font-size:24px; margin-bottom:20px;"">Which word describes you more?</div>","1","pairing","15","garbage","negligent","NegNeg","0","0","negative","negative","0","negligent","right","true"
"html-keyboard-response","32","33835","0.0-2.0-0.15","1068","11","pre","4","afternoon","2026-06-09","2026-06-23","2026-06-12T19:09:56.404Z","Mozilla/5.0 (iPhone; CPU iPhone OS 18_6_2 like Mac OS X) AppleWebKit/605.1.15 (KHTML, like Gecko) Mobile/15E148","370","647","240","","null","<div style=""font-size:60px;"">+</div>","null","fixation","","","","","","","","","","","",""
"html-button-response","33","35165","0.0-2.0-1.15","1068","11","pre","4","afternoon","2026-06-09","2026-06-23","2026-06-12T19:09:56.404Z","Mozilla/5.0 (iPhone; CPU iPhone OS 18_6_2 like Mac OS X) AppleWebKit/605.1.15 (KHTML, like Gecko) Mobile/15E148","370","647","240","","1330","<div class=""prompt"" style=""font-size:24px; margin-bottom:20px;"">Which word describes you more?</div>","1","pairing","16","disloyal","selfish","NegNeg","0","42","negative","negative","42","selfish","right","true"
"html-keyboard-response","34","35968","0.0-2.0-0.16","1068","11","pre","4","afternoon","2026-06-09","2026-06-23","2026-06-12T19:09:56.404Z","Mozilla/5.0 (iPhone; CPU iPhone OS 18_6_2 like Mac OS X) AppleWebKit/605.1.15 (KHTML, like Gecko) Mobile/15E148","370","647","240","","null","<div style=""font-size:60px;"">+</div>","null","fixation","","","","","","","","","","","",""
"html-button-response","35","36866","0.0-2.0-1.16","1068","11","pre","4","afternoon","2026-06-09","2026-06-23","2026-06-12T19:09:56.404Z","Mozilla/5.0 (iPhone; CPU iPhone OS 18_6_2 like Mac OS X) AppleWebKit/605.1.15 (KHTML, like Gecko) Mobile/15E148","370","647","240","","896","<div class=""prompt"" style=""font-size:24px; margin-bottom:20px;"">Which word describes you more?</div>","1","pairing","17","untrustworthy","energetic","PosNeg","0","100","negative","positive","100","energetic","right","true"
"html-keyboard-response","36","37668","0.0-2.0-0.17","1068","11","pre","4","afternoon","2026-06-09","2026-06-23","2026-06-12T19:09:56.404Z","Mozilla/5.0 (iPhone; CPU iPhone OS 18_6_2 like Mac OS X) AppleWebKit/605.1.15 (KHTML, like Gecko) Mobile/15E148","370","647","240","","null","<div style=""font-size:60px;"">+</div>","null","fixation","","","","","","","","","","","",""
"html-button-response","37","39116","0.0-2.0-1.17","1068","11","pre","4","afternoon","2026-06-09","2026-06-23","2026-06-12T19:09:56.404Z","Mozilla/5.0 (iPhone; CPU iPhone OS 18_6_2 like Mac OS X) AppleWebKit/605.1.15 (KHTML, like Gecko) Mobile/15E148","370","647","240","","1446","<div class=""prompt"" style=""font-size:24px; margin-bottom:20px;"">Which word describes you more?</div>","0","pairing","18","skilled","disloyal","PosNeg","97","0","positive","negative","97","skilled","left","true"
"html-keyboard-response","38","39918","0.0-2.0-0.18","1068","11","pre","4","afternoon","2026-06-09","2026-06-23","2026-06-12T19:09:56.404Z","Mozilla/5.0 (iPhone; CPU iPhone OS 18_6_2 like Mac OS X) AppleWebKit/605.1.15 (KHTML, like Gecko) Mobile/15E148","370","647","240","","null","<div style=""font-size:60px;"">+</div>","null","fixation","","","","","","","","","","","",""
"html-button-response","39","40600","0.0-2.0-1.18","1068","11","pre","4","afternoon","2026-06-09","2026-06-23","2026-06-12T19:09:56.404Z","Mozilla/5.0 (iPhone; CPU iPhone OS 18_6_2 like Mac OS X) AppleWebKit/605.1.15 (KHTML, like Gecko) Mobile/15E148","370","647","240","","680","<div class=""prompt"" style=""font-size:24px; margin-bottom:20px;"">Which word describes you more?</div>","0","pairing","19","resourceful","tolerant","PosPos","85","35","positive","positive","50","resourceful","left","true"
"html-keyboard-response","40","41402","0.0-2.0-0.19","1068","11","pre","4","afternoon","2026-06-09","2026-06-23","2026-06-12T19:09:56.404Z","Mozilla/5.0 (iPhone; CPU iPhone OS 18_6_2 like Mac OS X) AppleWebKit/605.1.15 (KHTML, like Gecko) Mobile/15E148","370","647","240","","null","<div style=""font-size:60px;"">+</div>","null","fixation","","","","","","","","","","","",""
"html-button-response","41","42083","0.0-2.0-1.19","1068","11","pre","4","afternoon","2026-06-09","2026-06-23","2026-06-12T19:09:56.404Z","Mozilla/5.0 (iPhone; CPU iPhone OS 18_6_2 like Mac OS X) AppleWebKit/605.1.15 (KHTML, like Gecko) Mobile/15E148","370","647","240","","679","<div class=""prompt"" style=""font-size:24px; margin-bottom:20px;"">Which word describes you more?</div>","0","pairing","20","respectable","inspirational","PosPos","86","84","positive","positive","2","respectable","left","true"
"html-keyboard-response","42","42885","0.0-2.0-0.20","1068","11","pre","4","afternoon","2026-06-09","2026-06-23","2026-06-12T19:09:56.404Z","Mozilla/5.0 (iPhone; CPU iPhone OS 18_6_2 like Mac OS X) AppleWebKit/605.1.15 (KHTML, like Gecko) Mobile/15E148","370","647","240","","null","<div style=""font-size:60px;"">+</div>","null","fixation","","","","","","","","","","","",""
"html-button-response","43","44115","0.0-2.0-1.20","1068","11","pre","4","afternoon","2026-06-09","2026-06-23","2026-06-12T19:09:56.404Z","Mozilla/5.0 (iPhone; CPU iPhone OS 18_6_2 like Mac OS X) AppleWebKit/605.1.15 (KHTML, like Gecko) Mobile/15E148","370","647","240","","1229","<div class=""prompt"" style=""font-size:24px; margin-bottom:20px;"">Which word describes you more?</div>","0","pairing","21","resourceful","asset","PosPos","85","89","positive","positive","4","resourceful","left","true"
"html-keyboard-response","44","44917","0.0-2.0-0.21","1068","11","pre","4","afternoon","2026-06-09","2026-06-23","2026-06-12T19:09:56.404Z","Mozilla/5.0 (iPhone; CPU iPhone OS 18_6_2 like Mac OS X) AppleWebKit/605.1.15 (KHTML, like Gecko) Mobile/15E148","370","647","240","","null","<div style=""font-size:60px;"">+</div>","null","fixation","","","","","","","","","","","",""
"html-button-response","45","46134","0.0-2.0-1.21","1068","11","pre","4","afternoon","2026-06-09","2026-06-23","2026-06-12T19:09:56.404Z","Mozilla/5.0 (iPhone; CPU iPhone OS 18_6_2 like Mac OS X) AppleWebKit/605.1.15 (KHTML, like Gecko) Mobile/15E148","370","647","240","","1215","<div class=""prompt"" style=""font-size:24px; margin-bottom:20px;"">Which word describes you more?</div>","1","pairing","22","deceitful","successful","PosNeg","0","90","negative","positive","90","successful","right","true"
"html-keyboard-response","46","46936","0.0-2.0-0.22","1068","11","pre","4","afternoon","2026-06-09","2026-06-23","2026-06-12T19:09:56.404Z","Mozilla/5.0 (iPhone; CPU iPhone OS 18_6_2 like Mac OS X) AppleWebKit/605.1.15 (KHTML, like Gecko) Mobile/15E148","370","647","240","","null","<div style=""font-size:60px;"">+</div>","null","fixation","","","","","","","","","","","",""
"html-button-response","47","48102","0.0-2.0-1.22","1068","11","pre","4","afternoon","2026-06-09","2026-06-23","2026-06-12T19:09:56.404Z","Mozilla/5.0 (iPhone; CPU iPhone OS 18_6_2 like Mac OS X) AppleWebKit/605.1.15 (KHTML, like Gecko) Mobile/15E148","370","647","240","","1164","<div class=""prompt"" style=""font-size:24px; margin-bottom:20px;"">Which word describes you more?</div>","1","pairing","23","uninvited","companion","PosNeg","2","97","negative","positive","95","companion","right","true"
"html-keyboard-response","48","48904","0.0-2.0-0.23","1068","11","pre","4","afternoon","2026-06-09","2026-06-23","2026-06-12T19:09:56.404Z","Mozilla/5.0 (iPhone; CPU iPhone OS 18_6_2 like Mac OS X) AppleWebKit/605.1.15 (KHTML, like Gecko) Mobile/15E148","370","647","240","","null","<div style=""font-size:60px;"">+</div>","null","fixation","","","","","","","","","","","",""
"html-button-response","49","49785","0.0-2.0-1.23","1068","11","pre","4","afternoon","2026-06-09","2026-06-23","2026-06-12T19:09:56.404Z","Mozilla/5.0 (iPhone; CPU iPhone OS 18_6_2 like Mac OS X) AppleWebKit/605.1.15 (KHTML, like Gecko) Mobile/15E148","370","647","240","","879","<div class=""prompt"" style=""font-size:24px; margin-bottom:20px;"">Which word describes you more?</div>","1","pairing","24","irritating","esteemed","PosNeg","0","85","negative","positive","85","esteemed","right","true"
"instructions","50","50402","0.0-3.0","1068","11","pre","4","afternoon","2026-06-09","2026-06-23","2026-06-12T19:09:56.404Z","Mozilla/5.0 (iPhone; CPU iPhone OS 18_6_2 like Mac OS X) AppleWebKit/605.1.15 (KHTML, like Gecko) Mobile/15E148","370","647","240","[{""page_index"":0,""viewing_time"":614}]","615","","","","","","","","","","","","","","",""
