"trial_type","trial_index","time_elapsed","internal_node_id","PUNS_ID","session_number","session_phase","session_day","session_slot","ema_start_date","ema_post_start_date","experiment_start","browser","screen_width","screen_height","timezone_offset","view_history","rt","stimulus","response","which_experiment_phase","trial_number","left_word","right_word","valence","left_base_rating","right_base_rating","left_valence","right_valence","abs_diff","participant_response","chosen_side","valid_response"
"pavlovia","0","2458","0.0-0.0","1014","47","post","6","afternoon","2026-02-05","2026-02-17","2026-02-23T01:12:08.460Z","Mozilla/5.0 (iPhone; CPU iPhone OS 18_7 like Mac OS X) AppleWebKit/605.1.15 (KHTML, like Gecko) Mobile/15E148","361","628","480","","","","","","","","","","","","","","","","",""
"instructions","1","6223","0.0-1.0","1014","47","post","6","afternoon","2026-02-05","2026-02-17","2026-02-23T01:12:08.460Z","Mozilla/5.0 (iPhone; CPU iPhone OS 18_7 like Mac OS X) AppleWebKit/605.1.15 (KHTML, like Gecko) Mobile/15E148","361","628","480","[{""page_index"":0,""viewing_time"":1400},{""page_index"":1,""viewing_time"":755},{""page_index"":2,""viewing_time"":959},{""page_index"":3,""viewing_time"":647}]","3762","","","","","","","","","","","","","","",""
"html-keyboard-response","2","7027","0.0-2.0-0.0","1014","47","post","6","afternoon","2026-02-05","2026-02-17","2026-02-23T01:12:08.460Z","Mozilla/5.0 (iPhone; CPU iPhone OS 18_7 like Mac OS X) AppleWebKit/605.1.15 (KHTML, like Gecko) Mobile/15E148","361","628","480","","null","<div style=""font-size:60px;"">+</div>","null","fixation","","","","","","","","","","","",""
"html-button-response","3","7960","0.0-2.0-1.0","1014","47","post","6","afternoon","2026-02-05","2026-02-17","2026-02-23T01:12:08.460Z","Mozilla/5.0 (iPhone; CPU iPhone OS 18_7 like Mac OS X) AppleWebKit/605.1.15 (KHTML, like Gecko) Mobile/15E148","361","628","480","","927","<div class=""prompt"" style=""font-size:24px; margin-bottom:20px;"">Which word describes you more?</div>","0","pairing","1","playful","awful","PosNeg","81","2","positive","negative","79","playful","left","true"
"html-keyboard-response","4","8762","0.0-2.0-0.1","1014","47","post","6","afternoon","2026-02-05","2026-02-17","2026-02-23T01:12:08.460Z","Mozilla/5.0 (iPhone; CPU iPhone OS 18_7 like Mac OS X) AppleWebKit/605.1.15 (KHTML, like Gecko) Mobile/15E148","361","628","480","","null","<div style=""font-size:60px;"">+</div>","null","fixation","","","","","","","","","","","",""
"html-button-response","5","11219","0.0-2.0-1.1","1014","47","post","6","afternoon","2026-02-05","2026-02-17","2026-02-23T01:12:08.460Z","Mozilla/5.0 (iPhone; CPU iPhone OS 18_7 like Mac OS X) AppleWebKit/605.1.15 (KHTML, like Gecko) Mobile/15E148","361","628","480","","2454","<div class=""prompt"" style=""font-size:24px; margin-bottom:20px;"">Which word describes you more?</div>","0","pairing","2","hopeful","attractive","PosPos","84","82","positive","positive","2","hopeful","left","true"
"html-keyboard-response","6","12021","0.0-2.0-0.2","1014","47","post","6","afternoon","2026-02-05","2026-02-17","2026-02-23T01:12:08.460Z","Mozilla/5.0 (iPhone; CPU iPhone OS 18_7 like Mac OS X) AppleWebKit/605.1.15 (KHTML, like Gecko) Mobile/15E148","361","628","480","","null","<div style=""font-size:60px;"">+</div>","null","fixation","","","","","","","","","","","",""
"html-button-response","7","13071","0.0-2.0-1.2","1014","47","post","6","afternoon","2026-02-05","2026-02-17","2026-02-23T01:12:08.460Z","Mozilla/5.0 (iPhone; CPU iPhone OS 18_7 like Mac OS X) AppleWebKit/605.1.15 (KHTML, like Gecko) Mobile/15E148","361","628","480","","1047","<div class=""prompt"" style=""font-size:24px; margin-bottom:20px;"">Which word describes you more?</div>","0","pairing","3","seeker","satisfied","PosPos","49","94","positive","positive","45","seeker","left","true"
"html-keyboard-response","8","13873","0.0-2.0-0.3","1014","47","post","6","afternoon","2026-02-05","2026-02-17","2026-02-23T01:12:08.460Z","Mozilla/5.0 (iPhone; CPU iPhone OS 18_7 like Mac OS X) AppleWebKit/605.1.15 (KHTML, like Gecko) Mobile/15E148","361","628","480","","null","<div style=""font-size:60px;"">+</div>","null","fixation","","","","","","","","","","","",""
"html-button-response","9","14789","0.0-2.0-1.3","1014","47","post","6","afternoon","2026-02-05","2026-02-17","2026-02-23T01:12:08.460Z","Mozilla/5.0 (iPhone; CPU iPhone OS 18_7 like Mac OS X) AppleWebKit/605.1.15 (KHTML, like Gecko) Mobile/15E148","361","628","480","","914","<div class=""prompt"" style=""font-size:24px; margin-bottom:20px;"">Which word describes you more?</div>","0","pairing","4","champion","tolerant","PosPos","98","57","positive","positive","41","champion","left","true"
"html-keyboard-response","10","15591","0.0-2.0-0.4","1014","47","post","6","afternoon","2026-02-05","2026-02-17","2026-02-23T01:12:08.460Z","Mozilla/5.0 (iPhone; CPU iPhone OS 18_7 like Mac OS X) AppleWebKit/605.1.15 (KHTML, like Gecko) Mobile/15E148","361","628","480","","null","<div style=""font-size:60px;"">+</div>","null","fixation","","","","","","","","","","","",""
"html-button-response","11","16598","0.0-2.0-1.4","1014","47","post","6","afternoon","2026-02-05","2026-02-17","2026-02-23T01:12:08.460Z","Mozilla/5.0 (iPhone; CPU iPhone OS 18_7 like Mac OS X) AppleWebKit/605.1.15 (KHTML, like Gecko) Mobile/15E148","361","628","480","","1005","<div class=""prompt"" style=""font-size:24px; margin-bottom:20px;"">Which word describes you more?</div>","0","pairing","5","fun","prick","PosNeg","88","0","positive","negative","88","fun","left","true"
"html-keyboard-response","12","17401","0.0-2.0-0.5","1014","47","post","6","afternoon","2026-02-05","2026-02-17","2026-02-23T01:12:08.460Z","Mozilla/5.0 (iPhone; CPU iPhone OS 18_7 like Mac OS X) AppleWebKit/605.1.15 (KHTML, like Gecko) Mobile/15E148","361","628","480","","null","<div style=""font-size:60px;"">+</div>","null","fixation","","","","","","","","","","","",""
"html-button-response","13","18841","0.0-2.0-1.5","1014","47","post","6","afternoon","2026-02-05","2026-02-17","2026-02-23T01:12:08.460Z","Mozilla/5.0 (iPhone; CPU iPhone OS 18_7 like Mac OS X) AppleWebKit/605.1.15 (KHTML, like Gecko) Mobile/15E148","361","628","480","","1438","<div class=""prompt"" style=""font-size:24px; margin-bottom:20px;"">Which word describes you more?</div>","0","pairing","6","bitter","jealous","NegNeg","0","6","negative","negative","6","bitter","left","true"
"html-keyboard-response","14","19643","0.0-2.0-0.6","1014","47","post","6","afternoon","2026-02-05","2026-02-17","2026-02-23T01:12:08.460Z","Mozilla/5.0 (iPhone; CPU iPhone OS 18_7 like Mac OS X) AppleWebKit/605.1.15 (KHTML, like Gecko) Mobile/15E148","361","628","480","","null","<div style=""font-size:60px;"">+</div>","null","fixation","","","","","","","","","","","",""
"html-button-response","15","20542","0.0-2.0-1.6","1014","47","post","6","afternoon","2026-02-05","2026-02-17","2026-02-23T01:12:08.460Z","Mozilla/5.0 (iPhone; CPU iPhone OS 18_7 like Mac OS X) AppleWebKit/605.1.15 (KHTML, like Gecko) Mobile/15E148","361","628","480","","894","<div class=""prompt"" style=""font-size:24px; margin-bottom:20px;"">Which word describes you more?</div>","0","pairing","7","proficient","charming","PosPos","72","94","positive","positive","22","proficient","left","true"
"html-keyboard-response","16","21345","0.0-2.0-0.7","1014","47","post","6","afternoon","2026-02-05","2026-02-17","2026-02-23T01:12:08.460Z","Mozilla/5.0 (iPhone; CPU iPhone OS 18_7 like Mac OS X) AppleWebKit/605.1.15 (KHTML, like Gecko) Mobile/15E148","361","628","480","","null","<div style=""font-size:60px;"">+</div>","null","fixation","","","","","","","","","","","",""
"html-button-response","17","22043","0.0-2.0-1.7","1014","47","post","6","afternoon","2026-02-05","2026-02-17","2026-02-23T01:12:08.460Z","Mozilla/5.0 (iPhone; CPU iPhone OS 18_7 like Mac OS X) AppleWebKit/605.1.15 (KHTML, like Gecko) Mobile/15E148","361","628","480","","694","<div class=""prompt"" style=""font-size:24px; margin-bottom:20px;"">Which word describes you more?</div>","0","pairing","8","awkward","merciful","PosNeg","51","11","negative","positive","40","awkward","left","true"
"html-keyboard-response","18","22846","0.0-2.0-0.8","1014","47","post","6","afternoon","2026-02-05","2026-02-17","2026-02-23T01:12:08.460Z","Mozilla/5.0 (iPhone; CPU iPhone OS 18_7 like Mac OS X) AppleWebKit/605.1.15 (KHTML, like Gecko) Mobile/15E148","361","628","480","","null","<div style=""font-size:60px;"">+</div>","null","fixation","","","","","","","","","","","",""
"html-button-response","19","23528","0.0-2.0-1.8","1014","47","post","6","afternoon","2026-02-05","2026-02-17","2026-02-23T01:12:08.460Z","Mozilla/5.0 (iPhone; CPU iPhone OS 18_7 like Mac OS X) AppleWebKit/605.1.15 (KHTML, like Gecko) Mobile/15E148","361","628","480","","681","<div class=""prompt"" style=""font-size:24px; margin-bottom:20px;"">Which word describes you more?</div>","0","pairing","9","irritating","malicious","NegNeg","1","7","negative","negative","6","irritating","left","true"
"html-keyboard-response","20","24331","0.0-2.0-0.9","1014","47","post","6","afternoon","2026-02-05","2026-02-17","2026-02-23T01:12:08.460Z","Mozilla/5.0 (iPhone; CPU iPhone OS 18_7 like Mac OS X) AppleWebKit/605.1.15 (KHTML, like Gecko) Mobile/15E148","361","628","480","","null","<div style=""font-size:60px;"">+</div>","null","fixation","","","","","","","","","","","",""
"html-button-response","21","25047","0.0-2.0-1.9","1014","47","post","6","afternoon","2026-02-05","2026-02-17","2026-02-23T01:12:08.460Z","Mozilla/5.0 (iPhone; CPU iPhone OS 18_7 like Mac OS X) AppleWebKit/605.1.15 (KHTML, like Gecko) Mobile/15E148","361","628","480","","709","<div class=""prompt"" style=""font-size:24px; margin-bottom:20px;"">Which word describes you more?</div>","0","pairing","10","awkward","seeker","PosNeg","51","49","negative","positive","2","awkward","left","true"
"html-keyboard-response","22","25850","0.0-2.0-0.10","1014","47","post","6","afternoon","2026-02-05","2026-02-17","2026-02-23T01:12:08.460Z","Mozilla/5.0 (iPhone; CPU iPhone OS 18_7 like Mac OS X) AppleWebKit/605.1.15 (KHTML, like Gecko) Mobile/15E148","361","628","480","","null","<div style=""font-size:60px;"">+</div>","null","fixation","","","","","","","","","","","",""
"html-button-response","23","27064","0.0-2.0-1.10","1014","47","post","6","afternoon","2026-02-05","2026-02-17","2026-02-23T01:12:08.460Z","Mozilla/5.0 (iPhone; CPU iPhone OS 18_7 like Mac OS X) AppleWebKit/605.1.15 (KHTML, like Gecko) Mobile/15E148","361","628","480","","1212","<div class=""prompt"" style=""font-size:24px; margin-bottom:20px;"">Which word describes you more?</div>","1","pairing","11","unwanted","committed","PosNeg","3","64","negative","positive","61","committed","right","true"
"html-keyboard-response","24","27868","0.0-2.0-0.11","1014","47","post","6","afternoon","2026-02-05","2026-02-17","2026-02-23T01:12:08.460Z","Mozilla/5.0 (iPhone; CPU iPhone OS 18_7 like Mac OS X) AppleWebKit/605.1.15 (KHTML, like Gecko) Mobile/15E148","361","628","480","","null","<div style=""font-size:60px;"">+</div>","null","fixation","","","","","","","","","","","",""
"html-button-response","25","28607","0.0-2.0-1.11","1014","47","post","6","afternoon","2026-02-05","2026-02-17","2026-02-23T01:12:08.460Z","Mozilla/5.0 (iPhone; CPU iPhone OS 18_7 like Mac OS X) AppleWebKit/605.1.15 (KHTML, like Gecko) Mobile/15E148","361","628","480","","738","<div class=""prompt"" style=""font-size:24px; margin-bottom:20px;"">Which word describes you more?</div>","0","pairing","12","alone","awful","NegNeg","4","2","negative","negative","2","alone","left","true"
"html-keyboard-response","26","29410","0.0-2.0-0.12","1014","47","post","6","afternoon","2026-02-05","2026-02-17","2026-02-23T01:12:08.460Z","Mozilla/5.0 (iPhone; CPU iPhone OS 18_7 like Mac OS X) AppleWebKit/605.1.15 (KHTML, like Gecko) Mobile/15E148","361","628","480","","null","<div style=""font-size:60px;"">+</div>","null","fixation","","","","","","","","","","","",""
"html-button-response","27","30292","0.0-2.0-1.12","1014","47","post","6","afternoon","2026-02-05","2026-02-17","2026-02-23T01:12:08.460Z","Mozilla/5.0 (iPhone; CPU iPhone OS 18_7 like Mac OS X) AppleWebKit/605.1.15 (KHTML, like Gecko) Mobile/15E148","361","628","480","","879","<div class=""prompt"" style=""font-size:24px; margin-bottom:20px;"">Which word describes you more?</div>","0","pairing","13","unforgivable","flawless","PosNeg","20","52","negative","positive","32","unforgivable","left","true"
"html-keyboard-response","28","31094","0.0-2.0-0.13","1014","47","post","6","afternoon","2026-02-05","2026-02-17","2026-02-23T01:12:08.460Z","Mozilla/5.0 (iPhone; CPU iPhone OS 18_7 like Mac OS X) AppleWebKit/605.1.15 (KHTML, like Gecko) Mobile/15E148","361","628","480","","null","<div style=""font-size:60px;"">+</div>","null","fixation","","","","","","","","","","","",""
"html-button-response","29","32085","0.0-2.0-1.13","1014","47","post","6","afternoon","2026-02-05","2026-02-17","2026-02-23T01:12:08.460Z","Mozilla/5.0 (iPhone; CPU iPhone OS 18_7 like Mac OS X) AppleWebKit/605.1.15 (KHTML, like Gecko) Mobile/15E148","361","628","480","","989","<div class=""prompt"" style=""font-size:24px; margin-bottom:20px;"">Which word describes you more?</div>","0","pairing","14","spirited","miserable","PosNeg","79","1","positive","negative","78","spirited","left","true"
"html-keyboard-response","30","32888","0.0-2.0-0.14","1014","47","post","6","afternoon","2026-02-05","2026-02-17","2026-02-23T01:12:08.460Z","Mozilla/5.0 (iPhone; CPU iPhone OS 18_7 like Mac OS X) AppleWebKit/605.1.15 (KHTML, like Gecko) Mobile/15E148","361","628","480","","null","<div style=""font-size:60px;"">+</div>","null","fixation","","","","","","","","","","","",""
"html-button-response","31","33479","0.0-2.0-1.14","1014","47","post","6","afternoon","2026-02-05","2026-02-17","2026-02-23T01:12:08.460Z","Mozilla/5.0 (iPhone; CPU iPhone OS 18_7 like Mac OS X) AppleWebKit/605.1.15 (KHTML, like Gecko) Mobile/15E148","361","628","480","","589","<div class=""prompt"" style=""font-size:24px; margin-bottom:20px;"">Which word describes you more?</div>","0","pairing","15","unbearable","admired","PosNeg","14","89","negative","positive","75","unbearable","left","true"
"html-keyboard-response","32","34281","0.0-2.0-0.15","1014","47","post","6","afternoon","2026-02-05","2026-02-17","2026-02-23T01:12:08.460Z","Mozilla/5.0 (iPhone; CPU iPhone OS 18_7 like Mac OS X) AppleWebKit/605.1.15 (KHTML, like Gecko) Mobile/15E148","361","628","480","","null","<div style=""font-size:60px;"">+</div>","null","fixation","","","","","","","","","","","",""
"html-button-response","33","38523","0.0-2.0-1.15","1014","47","post","6","afternoon","2026-02-05","2026-02-17","2026-02-23T01:12:08.460Z","Mozilla/5.0 (iPhone; CPU iPhone OS 18_7 like Mac OS X) AppleWebKit/605.1.15 (KHTML, like Gecko) Mobile/15E148","361","628","480","","4240","<div class=""prompt"" style=""font-size:24px; margin-bottom:20px;"">Which word describes you more?</div>","0","pairing","16","vengeful","outcast","NegNeg","0","43","negative","negative","43","vengeful","left","true"
"html-keyboard-response","34","39326","0.0-2.0-0.16","1014","47","post","6","afternoon","2026-02-05","2026-02-17","2026-02-23T01:12:08.460Z","Mozilla/5.0 (iPhone; CPU iPhone OS 18_7 like Mac OS X) AppleWebKit/605.1.15 (KHTML, like Gecko) Mobile/15E148","361","628","480","","null","<div style=""font-size:60px;"">+</div>","null","fixation","","","","","","","","","","","",""
"html-button-response","35","40279","0.0-2.0-1.16","1014","47","post","6","afternoon","2026-02-05","2026-02-17","2026-02-23T01:12:08.460Z","Mozilla/5.0 (iPhone; CPU iPhone OS 18_7 like Mac OS X) AppleWebKit/605.1.15 (KHTML, like Gecko) Mobile/15E148","361","628","480","","952","<div class=""prompt"" style=""font-size:24px; margin-bottom:20px;"">Which word describes you more?</div>","0","pairing","17","slob","unfaithful","NegNeg","2","6","negative","negative","4","slob","left","true"
"html-keyboard-response","36","41082","0.0-2.0-0.17","1014","47","post","6","afternoon","2026-02-05","2026-02-17","2026-02-23T01:12:08.460Z","Mozilla/5.0 (iPhone; CPU iPhone OS 18_7 like Mac OS X) AppleWebKit/605.1.15 (KHTML, like Gecko) Mobile/15E148","361","628","480","","null","<div style=""font-size:60px;"">+</div>","null","fixation","","","","","","","","","","","",""
"html-button-response","37","42073","0.0-2.0-1.17","1014","47","post","6","afternoon","2026-02-05","2026-02-17","2026-02-23T01:12:08.460Z","Mozilla/5.0 (iPhone; CPU iPhone OS 18_7 like Mac OS X) AppleWebKit/605.1.15 (KHTML, like Gecko) Mobile/15E148","361","628","480","","989","<div class=""prompt"" style=""font-size:24px; margin-bottom:20px;"">Which word describes you more?</div>","1","pairing","18","resourceful","unwanted","PosNeg","70","3","positive","negative","67","unwanted","right","true"
"html-keyboard-response","38","42876","0.0-2.0-0.18","1014","47","post","6","afternoon","2026-02-05","2026-02-17","2026-02-23T01:12:08.460Z","Mozilla/5.0 (iPhone; CPU iPhone OS 18_7 like Mac OS X) AppleWebKit/605.1.15 (KHTML, like Gecko) Mobile/15E148","361","628","480","","null","<div style=""font-size:60px;"">+</div>","null","fixation","","","","","","","","","","","",""
"html-button-response","39","43239","0.0-2.0-1.18","1014","47","post","6","afternoon","2026-02-05","2026-02-17","2026-02-23T01:12:08.460Z","Mozilla/5.0 (iPhone; CPU iPhone OS 18_7 like Mac OS X) AppleWebKit/605.1.15 (KHTML, like Gecko) Mobile/15E148","361","628","480","","361","<div class=""prompt"" style=""font-size:24px; margin-bottom:20px;"">Which word describes you more?</div>","0","pairing","19","peaceful","merciful","PosPos","84","11","positive","positive","73","peaceful","left","true"
"html-keyboard-response","40","44041","0.0-2.0-0.19","1014","47","post","6","afternoon","2026-02-05","2026-02-17","2026-02-23T01:12:08.460Z","Mozilla/5.0 (iPhone; CPU iPhone OS 18_7 like Mac OS X) AppleWebKit/605.1.15 (KHTML, like Gecko) Mobile/15E148","361","628","480","","null","<div style=""font-size:60px;"">+</div>","null","fixation","","","","","","","","","","","",""
"html-button-response","41","44766","0.0-2.0-1.19","1014","47","post","6","afternoon","2026-02-05","2026-02-17","2026-02-23T01:12:08.460Z","Mozilla/5.0 (iPhone; CPU iPhone OS 18_7 like Mac OS X) AppleWebKit/605.1.15 (KHTML, like Gecko) Mobile/15E148","361","628","480","","723","<div class=""prompt"" style=""font-size:24px; margin-bottom:20px;"">Which word describes you more?</div>","0","pairing","20","decisive","awkward","PosNeg","44","51","positive","negative","7","decisive","left","true"
"html-keyboard-response","42","45568","0.0-2.0-0.20","1014","47","post","6","afternoon","2026-02-05","2026-02-17","2026-02-23T01:12:08.460Z","Mozilla/5.0 (iPhone; CPU iPhone OS 18_7 like Mac OS X) AppleWebKit/605.1.15 (KHTML, like Gecko) Mobile/15E148","361","628","480","","null","<div style=""font-size:60px;"">+</div>","null","fixation","","","","","","","","","","","",""
"html-button-response","43","46576","0.0-2.0-1.20","1014","47","post","6","afternoon","2026-02-05","2026-02-17","2026-02-23T01:12:08.460Z","Mozilla/5.0 (iPhone; CPU iPhone OS 18_7 like Mac OS X) AppleWebKit/605.1.15 (KHTML, like Gecko) Mobile/15E148","361","628","480","","1005","<div class=""prompt"" style=""font-size:24px; margin-bottom:20px;"">Which word describes you more?</div>","0","pairing","21","seeker","gloomy","PosNeg","49","31","positive","negative","18","seeker","left","true"
"html-keyboard-response","44","47378","0.0-2.0-0.21","1014","47","post","6","afternoon","2026-02-05","2026-02-17","2026-02-23T01:12:08.460Z","Mozilla/5.0 (iPhone; CPU iPhone OS 18_7 like Mac OS X) AppleWebKit/605.1.15 (KHTML, like Gecko) Mobile/15E148","361","628","480","","null","<div style=""font-size:60px;"">+</div>","null","fixation","","","","","","","","","","","",""
"html-button-response","45","48569","0.0-2.0-1.21","1014","47","post","6","afternoon","2026-02-05","2026-02-17","2026-02-23T01:12:08.460Z","Mozilla/5.0 (iPhone; CPU iPhone OS 18_7 like Mac OS X) AppleWebKit/605.1.15 (KHTML, like Gecko) Mobile/15E148","361","628","480","","1189","<div class=""prompt"" style=""font-size:24px; margin-bottom:20px;"">Which word describes you more?</div>","0","pairing","22","tolerant","disgusting","PosNeg","57","5","positive","negative","52","tolerant","left","true"
"html-keyboard-response","46","49371","0.0-2.0-0.22","1014","47","post","6","afternoon","2026-02-05","2026-02-17","2026-02-23T01:12:08.460Z","Mozilla/5.0 (iPhone; CPU iPhone OS 18_7 like Mac OS X) AppleWebKit/605.1.15 (KHTML, like Gecko) Mobile/15E148","361","628","480","","null","<div style=""font-size:60px;"">+</div>","null","fixation","","","","","","","","","","","",""
"html-button-response","47","50637","0.0-2.0-1.22","1014","47","post","6","afternoon","2026-02-05","2026-02-17","2026-02-23T01:12:08.460Z","Mozilla/5.0 (iPhone; CPU iPhone OS 18_7 like Mac OS X) AppleWebKit/605.1.15 (KHTML, like Gecko) Mobile/15E148","361","628","480","","1264","<div class=""prompt"" style=""font-size:24px; margin-bottom:20px;"">Which word describes you more?</div>","1","pairing","23","outcast","helpless","NegNeg","43","5","negative","negative","38","helpless","right","true"
"html-keyboard-response","48","51439","0.0-2.0-0.23","1014","47","post","6","afternoon","2026-02-05","2026-02-17","2026-02-23T01:12:08.460Z","Mozilla/5.0 (iPhone; CPU iPhone OS 18_7 like Mac OS X) AppleWebKit/605.1.15 (KHTML, like Gecko) Mobile/15E148","361","628","480","","null","<div style=""font-size:60px;"">+</div>","null","fixation","","","","","","","","","","","",""
"html-button-response","49","53040","0.0-2.0-1.23","1014","47","post","6","afternoon","2026-02-05","2026-02-17","2026-02-23T01:12:08.460Z","Mozilla/5.0 (iPhone; CPU iPhone OS 18_7 like Mac OS X) AppleWebKit/605.1.15 (KHTML, like Gecko) Mobile/15E148","361","628","480","","1599","<div class=""prompt"" style=""font-size:24px; margin-bottom:20px;"">Which word describes you more?</div>","0","pairing","24","merciful","sensible","PosPos","11","100","positive","positive","89","merciful","left","true"
"instructions","50","53814","0.0-3.0","1014","47","post","6","afternoon","2026-02-05","2026-02-17","2026-02-23T01:12:08.460Z","Mozilla/5.0 (iPhone; CPU iPhone OS 18_7 like Mac OS X) AppleWebKit/605.1.15 (KHTML, like Gecko) Mobile/15E148","361","628","480","[{""page_index"":0,""viewing_time"":771}]","771","","","","","","","","","","","","","","",""
