"trial_type","trial_index","time_elapsed","internal_node_id","PUNS_ID","session_number","session_phase","session_day","session_slot","ema_start_date","ema_post_start_date","experiment_start","browser","screen_width","screen_height","timezone_offset","view_history","rt","stimulus","response","which_experiment_phase","trial_number","left_word","right_word","valence","left_base_rating","right_base_rating","left_valence","right_valence","abs_diff","participant_response","chosen_side","valid_response"
"pavlovia","0","1528","0.0-0.0","1067","14","pre","5","afternoon","2026-04-08","2026-04-21","2026-04-12T20:26:54.079Z","Mozilla/5.0 (iPhone; CPU iPhone OS 18_7 like Mac OS X) AppleWebKit/605.1.15 (KHTML, like Gecko) Mobile/15E148","358","632","240","","","","","","","","","","","","","","","","",""
"instructions","1","4790","0.0-1.0","1067","14","pre","5","afternoon","2026-04-08","2026-04-21","2026-04-12T20:26:54.079Z","Mozilla/5.0 (iPhone; CPU iPhone OS 18_7 like Mac OS X) AppleWebKit/605.1.15 (KHTML, like Gecko) Mobile/15E148","358","632","240","[{""page_index"":0,""viewing_time"":726},{""page_index"":1,""viewing_time"":444},{""page_index"":2,""viewing_time"":1565},{""page_index"":3,""viewing_time"":519}]","3255","","","","","","","","","","","","","","",""
"html-keyboard-response","2","5595","0.0-2.0-0.0","1067","14","pre","5","afternoon","2026-04-08","2026-04-21","2026-04-12T20:26:54.079Z","Mozilla/5.0 (iPhone; CPU iPhone OS 18_7 like Mac OS X) AppleWebKit/605.1.15 (KHTML, like Gecko) Mobile/15E148","358","632","240","","null","<div style=""font-size:60px;"">+</div>","null","fixation","","","","","","","","","","","",""
"html-button-response","3","6703","0.0-2.0-1.0","1067","14","pre","5","afternoon","2026-04-08","2026-04-21","2026-04-12T20:26:54.079Z","Mozilla/5.0 (iPhone; CPU iPhone OS 18_7 like Mac OS X) AppleWebKit/605.1.15 (KHTML, like Gecko) Mobile/15E148","358","632","240","","1103","<div class=""prompt"" style=""font-size:24px; margin-bottom:20px;"">Which word describes you more?</div>","1","pairing","1","unfaithful","pleased","PosNeg","0","88","negative","positive","88","pleased","right","true"
"html-keyboard-response","4","7507","0.0-2.0-0.1","1067","14","pre","5","afternoon","2026-04-08","2026-04-21","2026-04-12T20:26:54.079Z","Mozilla/5.0 (iPhone; CPU iPhone OS 18_7 like Mac OS X) AppleWebKit/605.1.15 (KHTML, like Gecko) Mobile/15E148","358","632","240","","null","<div style=""font-size:60px;"">+</div>","null","fixation","","","","","","","","","","","",""
"html-button-response","5","8407","0.0-2.0-1.1","1067","14","pre","5","afternoon","2026-04-08","2026-04-21","2026-04-12T20:26:54.079Z","Mozilla/5.0 (iPhone; CPU iPhone OS 18_7 like Mac OS X) AppleWebKit/605.1.15 (KHTML, like Gecko) Mobile/15E148","358","632","240","","897","<div class=""prompt"" style=""font-size:24px; margin-bottom:20px;"">Which word describes you more?</div>","1","pairing","2","patient","learner","PosPos","32","100","positive","positive","68","learner","right","true"
"html-keyboard-response","6","9210","0.0-2.0-0.2","1067","14","pre","5","afternoon","2026-04-08","2026-04-21","2026-04-12T20:26:54.079Z","Mozilla/5.0 (iPhone; CPU iPhone OS 18_7 like Mac OS X) AppleWebKit/605.1.15 (KHTML, like Gecko) Mobile/15E148","358","632","240","","null","<div style=""font-size:60px;"">+</div>","null","fixation","","","","","","","","","","","",""
"html-button-response","7","10519","0.0-2.0-1.2","1067","14","pre","5","afternoon","2026-04-08","2026-04-21","2026-04-12T20:26:54.079Z","Mozilla/5.0 (iPhone; CPU iPhone OS 18_7 like Mac OS X) AppleWebKit/605.1.15 (KHTML, like Gecko) Mobile/15E148","358","632","240","","1306","<div class=""prompt"" style=""font-size:24px; margin-bottom:20px;"">Which word describes you more?</div>","1","pairing","3","unpleasant","clever","PosNeg","0","66","negative","positive","66","clever","right","true"
"html-keyboard-response","8","11321","0.0-2.0-0.3","1067","14","pre","5","afternoon","2026-04-08","2026-04-21","2026-04-12T20:26:54.079Z","Mozilla/5.0 (iPhone; CPU iPhone OS 18_7 like Mac OS X) AppleWebKit/605.1.15 (KHTML, like Gecko) Mobile/15E148","358","632","240","","null","<div style=""font-size:60px;"">+</div>","null","fixation","","","","","","","","","","","",""
"html-button-response","9","12356","0.0-2.0-1.3","1067","14","pre","5","afternoon","2026-04-08","2026-04-21","2026-04-12T20:26:54.079Z","Mozilla/5.0 (iPhone; CPU iPhone OS 18_7 like Mac OS X) AppleWebKit/605.1.15 (KHTML, like Gecko) Mobile/15E148","358","632","240","","1032","<div class=""prompt"" style=""font-size:24px; margin-bottom:20px;"">Which word describes you more?</div>","1","pairing","4","hater","asset","PosNeg","75","64","negative","positive","11","asset","right","true"
"html-keyboard-response","10","13159","0.0-2.0-0.4","1067","14","pre","5","afternoon","2026-04-08","2026-04-21","2026-04-12T20:26:54.079Z","Mozilla/5.0 (iPhone; CPU iPhone OS 18_7 like Mac OS X) AppleWebKit/605.1.15 (KHTML, like Gecko) Mobile/15E148","358","632","240","","null","<div style=""font-size:60px;"">+</div>","null","fixation","","","","","","","","","","","",""
"html-button-response","11","14240","0.0-2.0-1.4","1067","14","pre","5","afternoon","2026-04-08","2026-04-21","2026-04-12T20:26:54.079Z","Mozilla/5.0 (iPhone; CPU iPhone OS 18_7 like Mac OS X) AppleWebKit/605.1.15 (KHTML, like Gecko) Mobile/15E148","358","632","240","","1078","<div class=""prompt"" style=""font-size:24px; margin-bottom:20px;"">Which word describes you more?</div>","0","pairing","5","awkward","hesitant","NegNeg","74","30","negative","negative","44","awkward","left","true"
"html-keyboard-response","12","15043","0.0-2.0-0.5","1067","14","pre","5","afternoon","2026-04-08","2026-04-21","2026-04-12T20:26:54.079Z","Mozilla/5.0 (iPhone; CPU iPhone OS 18_7 like Mac OS X) AppleWebKit/605.1.15 (KHTML, like Gecko) Mobile/15E148","358","632","240","","null","<div style=""font-size:60px;"">+</div>","null","fixation","","","","","","","","","","","",""
"html-button-response","13","16541","0.0-2.0-1.5","1067","14","pre","5","afternoon","2026-04-08","2026-04-21","2026-04-12T20:26:54.079Z","Mozilla/5.0 (iPhone; CPU iPhone OS 18_7 like Mac OS X) AppleWebKit/605.1.15 (KHTML, like Gecko) Mobile/15E148","358","632","240","","1495","<div class=""prompt"" style=""font-size:24px; margin-bottom:20px;"">Which word describes you more?</div>","0","pairing","6","vengeful","pest","NegNeg","73","50","negative","negative","23","vengeful","left","true"
"html-keyboard-response","14","17344","0.0-2.0-0.6","1067","14","pre","5","afternoon","2026-04-08","2026-04-21","2026-04-12T20:26:54.079Z","Mozilla/5.0 (iPhone; CPU iPhone OS 18_7 like Mac OS X) AppleWebKit/605.1.15 (KHTML, like Gecko) Mobile/15E148","358","632","240","","null","<div style=""font-size:60px;"">+</div>","null","fixation","","","","","","","","","","","",""
"html-button-response","15","18372","0.0-2.0-1.6","1067","14","pre","5","afternoon","2026-04-08","2026-04-21","2026-04-12T20:26:54.079Z","Mozilla/5.0 (iPhone; CPU iPhone OS 18_7 like Mac OS X) AppleWebKit/605.1.15 (KHTML, like Gecko) Mobile/15E148","358","632","240","","1024","<div class=""prompt"" style=""font-size:24px; margin-bottom:20px;"">Which word describes you more?</div>","0","pairing","7","awkward","deceitful","NegNeg","74","1","negative","negative","73","awkward","left","true"
"html-keyboard-response","16","19176","0.0-2.0-0.7","1067","14","pre","5","afternoon","2026-04-08","2026-04-21","2026-04-12T20:26:54.079Z","Mozilla/5.0 (iPhone; CPU iPhone OS 18_7 like Mac OS X) AppleWebKit/605.1.15 (KHTML, like Gecko) Mobile/15E148","358","632","240","","null","<div style=""font-size:60px;"">+</div>","null","fixation","","","","","","","","","","","",""
"html-button-response","17","20424","0.0-2.0-1.7","1067","14","pre","5","afternoon","2026-04-08","2026-04-21","2026-04-12T20:26:54.079Z","Mozilla/5.0 (iPhone; CPU iPhone OS 18_7 like Mac OS X) AppleWebKit/605.1.15 (KHTML, like Gecko) Mobile/15E148","358","632","240","","1246","<div class=""prompt"" style=""font-size:24px; margin-bottom:20px;"">Which word describes you more?</div>","0","pairing","8","legendary","irritating","PosNeg","36","72","positive","negative","36","legendary","left","true"
"html-keyboard-response","18","21227","0.0-2.0-0.8","1067","14","pre","5","afternoon","2026-04-08","2026-04-21","2026-04-12T20:26:54.079Z","Mozilla/5.0 (iPhone; CPU iPhone OS 18_7 like Mac OS X) AppleWebKit/605.1.15 (KHTML, like Gecko) Mobile/15E148","358","632","240","","null","<div style=""font-size:60px;"">+</div>","null","fixation","","","","","","","","","","","",""
"html-button-response","19","22238","0.0-2.0-1.8","1067","14","pre","5","afternoon","2026-04-08","2026-04-21","2026-04-12T20:26:54.079Z","Mozilla/5.0 (iPhone; CPU iPhone OS 18_7 like Mac OS X) AppleWebKit/605.1.15 (KHTML, like Gecko) Mobile/15E148","358","632","240","","1008","<div class=""prompt"" style=""font-size:24px; margin-bottom:20px;"">Which word describes you more?</div>","1","pairing","9","alone","arrogant","NegNeg","0","87","negative","negative","87","arrogant","right","true"
"html-keyboard-response","20","23039","0.0-2.0-0.9","1067","14","pre","5","afternoon","2026-04-08","2026-04-21","2026-04-12T20:26:54.079Z","Mozilla/5.0 (iPhone; CPU iPhone OS 18_7 like Mac OS X) AppleWebKit/605.1.15 (KHTML, like Gecko) Mobile/15E148","358","632","240","","null","<div style=""font-size:60px;"">+</div>","null","fixation","","","","","","","","","","","",""
"html-button-response","21","24175","0.0-2.0-1.9","1067","14","pre","5","afternoon","2026-04-08","2026-04-21","2026-04-12T20:26:54.079Z","Mozilla/5.0 (iPhone; CPU iPhone OS 18_7 like Mac OS X) AppleWebKit/605.1.15 (KHTML, like Gecko) Mobile/15E148","358","632","240","","1132","<div class=""prompt"" style=""font-size:24px; margin-bottom:20px;"">Which word describes you more?</div>","1","pairing","10","expert","unique","PosPos","50","88","positive","positive","38","unique","right","true"
"html-keyboard-response","22","24977","0.0-2.0-0.10","1067","14","pre","5","afternoon","2026-04-08","2026-04-21","2026-04-12T20:26:54.079Z","Mozilla/5.0 (iPhone; CPU iPhone OS 18_7 like Mac OS X) AppleWebKit/605.1.15 (KHTML, like Gecko) Mobile/15E148","358","632","240","","null","<div style=""font-size:60px;"">+</div>","null","fixation","","","","","","","","","","","",""
"html-button-response","23","26059","0.0-2.0-1.10","1067","14","pre","5","afternoon","2026-04-08","2026-04-21","2026-04-12T20:26:54.079Z","Mozilla/5.0 (iPhone; CPU iPhone OS 18_7 like Mac OS X) AppleWebKit/605.1.15 (KHTML, like Gecko) Mobile/15E148","358","632","240","","1078","<div class=""prompt"" style=""font-size:24px; margin-bottom:20px;"">Which word describes you more?</div>","0","pairing","11","safe","patient","PosPos","99","32","positive","positive","67","safe","left","true"
"html-keyboard-response","24","26861","0.0-2.0-0.11","1067","14","pre","5","afternoon","2026-04-08","2026-04-21","2026-04-12T20:26:54.079Z","Mozilla/5.0 (iPhone; CPU iPhone OS 18_7 like Mac OS X) AppleWebKit/605.1.15 (KHTML, like Gecko) Mobile/15E148","358","632","240","","null","<div style=""font-size:60px;"">+</div>","null","fixation","","","","","","","","","","","",""
"html-button-response","25","28358","0.0-2.0-1.11","1067","14","pre","5","afternoon","2026-04-08","2026-04-21","2026-04-12T20:26:54.079Z","Mozilla/5.0 (iPhone; CPU iPhone OS 18_7 like Mac OS X) AppleWebKit/605.1.15 (KHTML, like Gecko) Mobile/15E148","358","632","240","","1494","<div class=""prompt"" style=""font-size:24px; margin-bottom:20px;"">Which word describes you more?</div>","1","pairing","12","alone","jerk","NegNeg","0","40","negative","negative","40","jerk","right","true"
"html-keyboard-response","26","29161","0.0-2.0-0.12","1067","14","pre","5","afternoon","2026-04-08","2026-04-21","2026-04-12T20:26:54.079Z","Mozilla/5.0 (iPhone; CPU iPhone OS 18_7 like Mac OS X) AppleWebKit/605.1.15 (KHTML, like Gecko) Mobile/15E148","358","632","240","","null","<div style=""font-size:60px;"">+</div>","null","fixation","","","","","","","","","","","",""
"html-button-response","27","30108","0.0-2.0-1.12","1067","14","pre","5","afternoon","2026-04-08","2026-04-21","2026-04-12T20:26:54.079Z","Mozilla/5.0 (iPhone; CPU iPhone OS 18_7 like Mac OS X) AppleWebKit/605.1.15 (KHTML, like Gecko) Mobile/15E148","358","632","240","","946","<div class=""prompt"" style=""font-size:24px; margin-bottom:20px;"">Which word describes you more?</div>","0","pairing","13","graceful","successful","PosPos","92","77","positive","positive","15","graceful","left","true"
"html-keyboard-response","28","30911","0.0-2.0-0.13","1067","14","pre","5","afternoon","2026-04-08","2026-04-21","2026-04-12T20:26:54.079Z","Mozilla/5.0 (iPhone; CPU iPhone OS 18_7 like Mac OS X) AppleWebKit/605.1.15 (KHTML, like Gecko) Mobile/15E148","358","632","240","","null","<div style=""font-size:60px;"">+</div>","null","fixation","","","","","","","","","","","",""
"html-button-response","29","31891","0.0-2.0-1.13","1067","14","pre","5","afternoon","2026-04-08","2026-04-21","2026-04-12T20:26:54.079Z","Mozilla/5.0 (iPhone; CPU iPhone OS 18_7 like Mac OS X) AppleWebKit/605.1.15 (KHTML, like Gecko) Mobile/15E148","358","632","240","","978","<div class=""prompt"" style=""font-size:24px; margin-bottom:20px;"">Which word describes you more?</div>","1","pairing","14","pleased","enthusiastic","PosPos","88","92","positive","positive","4","enthusiastic","right","true"
"html-keyboard-response","30","32693","0.0-2.0-0.14","1067","14","pre","5","afternoon","2026-04-08","2026-04-21","2026-04-12T20:26:54.079Z","Mozilla/5.0 (iPhone; CPU iPhone OS 18_7 like Mac OS X) AppleWebKit/605.1.15 (KHTML, like Gecko) Mobile/15E148","358","632","240","","null","<div style=""font-size:60px;"">+</div>","null","fixation","","","","","","","","","","","",""
"html-button-response","31","33739","0.0-2.0-1.14","1067","14","pre","5","afternoon","2026-04-08","2026-04-21","2026-04-12T20:26:54.079Z","Mozilla/5.0 (iPhone; CPU iPhone OS 18_7 like Mac OS X) AppleWebKit/605.1.15 (KHTML, like Gecko) Mobile/15E148","358","632","240","","1042","<div class=""prompt"" style=""font-size:24px; margin-bottom:20px;"">Which word describes you more?</div>","0","pairing","15","sensible","champion","PosPos","87","44","positive","positive","43","sensible","left","true"
"html-keyboard-response","32","34541","0.0-2.0-0.15","1067","14","pre","5","afternoon","2026-04-08","2026-04-21","2026-04-12T20:26:54.079Z","Mozilla/5.0 (iPhone; CPU iPhone OS 18_7 like Mac OS X) AppleWebKit/605.1.15 (KHTML, like Gecko) Mobile/15E148","358","632","240","","null","<div style=""font-size:60px;"">+</div>","null","fixation","","","","","","","","","","","",""
"html-button-response","33","36721","0.0-2.0-1.15","1067","14","pre","5","afternoon","2026-04-08","2026-04-21","2026-04-12T20:26:54.079Z","Mozilla/5.0 (iPhone; CPU iPhone OS 18_7 like Mac OS X) AppleWebKit/605.1.15 (KHTML, like Gecko) Mobile/15E148","358","632","240","","2178","<div class=""prompt"" style=""font-size:24px; margin-bottom:20px;"">Which word describes you more?</div>","0","pairing","16","empty","immoral","NegNeg","0","4","negative","negative","4","empty","left","true"
"html-keyboard-response","34","37523","0.0-2.0-0.16","1067","14","pre","5","afternoon","2026-04-08","2026-04-21","2026-04-12T20:26:54.079Z","Mozilla/5.0 (iPhone; CPU iPhone OS 18_7 like Mac OS X) AppleWebKit/605.1.15 (KHTML, like Gecko) Mobile/15E148","358","632","240","","null","<div style=""font-size:60px;"">+</div>","null","fixation","","","","","","","","","","","",""
"html-button-response","35","38557","0.0-2.0-1.16","1067","14","pre","5","afternoon","2026-04-08","2026-04-21","2026-04-12T20:26:54.079Z","Mozilla/5.0 (iPhone; CPU iPhone OS 18_7 like Mac OS X) AppleWebKit/605.1.15 (KHTML, like Gecko) Mobile/15E148","358","632","240","","1031","<div class=""prompt"" style=""font-size:24px; margin-bottom:20px;"">Which word describes you more?</div>","0","pairing","17","skilled","hater","PosNeg","67","75","positive","negative","8","skilled","left","true"
"html-keyboard-response","36","39359","0.0-2.0-0.17","1067","14","pre","5","afternoon","2026-04-08","2026-04-21","2026-04-12T20:26:54.079Z","Mozilla/5.0 (iPhone; CPU iPhone OS 18_7 like Mac OS X) AppleWebKit/605.1.15 (KHTML, like Gecko) Mobile/15E148","358","632","240","","null","<div style=""font-size:60px;"">+</div>","null","fixation","","","","","","","","","","","",""
"html-button-response","37","40426","0.0-2.0-1.17","1067","14","pre","5","afternoon","2026-04-08","2026-04-21","2026-04-12T20:26:54.079Z","Mozilla/5.0 (iPhone; CPU iPhone OS 18_7 like Mac OS X) AppleWebKit/605.1.15 (KHTML, like Gecko) Mobile/15E148","358","632","240","","1065","<div class=""prompt"" style=""font-size:24px; margin-bottom:20px;"">Which word describes you more?</div>","0","pairing","18","goodwilled","unpleasant","PosNeg","79","0","positive","negative","79","goodwilled","left","true"
"html-keyboard-response","38","41228","0.0-2.0-0.18","1067","14","pre","5","afternoon","2026-04-08","2026-04-21","2026-04-12T20:26:54.079Z","Mozilla/5.0 (iPhone; CPU iPhone OS 18_7 like Mac OS X) AppleWebKit/605.1.15 (KHTML, like Gecko) Mobile/15E148","358","632","240","","null","<div style=""font-size:60px;"">+</div>","null","fixation","","","","","","","","","","","",""
"html-button-response","39","42126","0.0-2.0-1.18","1067","14","pre","5","afternoon","2026-04-08","2026-04-21","2026-04-12T20:26:54.079Z","Mozilla/5.0 (iPhone; CPU iPhone OS 18_7 like Mac OS X) AppleWebKit/605.1.15 (KHTML, like Gecko) Mobile/15E148","358","632","240","","894","<div class=""prompt"" style=""font-size:24px; margin-bottom:20px;"">Which word describes you more?</div>","0","pairing","19","arrogant","visionary","PosNeg","87","47","negative","positive","40","arrogant","left","true"
"html-keyboard-response","40","42928","0.0-2.0-0.19","1067","14","pre","5","afternoon","2026-04-08","2026-04-21","2026-04-12T20:26:54.079Z","Mozilla/5.0 (iPhone; CPU iPhone OS 18_7 like Mac OS X) AppleWebKit/605.1.15 (KHTML, like Gecko) Mobile/15E148","358","632","240","","null","<div style=""font-size:60px;"">+</div>","null","fixation","","","","","","","","","","","",""
"html-button-response","41","44376","0.0-2.0-1.19","1067","14","pre","5","afternoon","2026-04-08","2026-04-21","2026-04-12T20:26:54.079Z","Mozilla/5.0 (iPhone; CPU iPhone OS 18_7 like Mac OS X) AppleWebKit/605.1.15 (KHTML, like Gecko) Mobile/15E148","358","632","240","","1446","<div class=""prompt"" style=""font-size:24px; margin-bottom:20px;"">Which word describes you more?</div>","1","pairing","20","rude","cooperative","PosNeg","20","88","negative","positive","68","cooperative","right","true"
"html-keyboard-response","42","45179","0.0-2.0-0.20","1067","14","pre","5","afternoon","2026-04-08","2026-04-21","2026-04-12T20:26:54.079Z","Mozilla/5.0 (iPhone; CPU iPhone OS 18_7 like Mac OS X) AppleWebKit/605.1.15 (KHTML, like Gecko) Mobile/15E148","358","632","240","","null","<div style=""font-size:60px;"">+</div>","null","fixation","","","","","","","","","","","",""
"html-button-response","43","47110","0.0-2.0-1.20","1067","14","pre","5","afternoon","2026-04-08","2026-04-21","2026-04-12T20:26:54.079Z","Mozilla/5.0 (iPhone; CPU iPhone OS 18_7 like Mac OS X) AppleWebKit/605.1.15 (KHTML, like Gecko) Mobile/15E148","358","632","240","","1928","<div class=""prompt"" style=""font-size:24px; margin-bottom:20px;"">Which word describes you more?</div>","1","pairing","21","insecure","admired","PosNeg","24","51","negative","positive","27","admired","right","true"
"html-keyboard-response","44","47912","0.0-2.0-0.21","1067","14","pre","5","afternoon","2026-04-08","2026-04-21","2026-04-12T20:26:54.079Z","Mozilla/5.0 (iPhone; CPU iPhone OS 18_7 like Mac OS X) AppleWebKit/605.1.15 (KHTML, like Gecko) Mobile/15E148","358","632","240","","null","<div style=""font-size:60px;"">+</div>","null","fixation","","","","","","","","","","","",""
"html-button-response","45","48876","0.0-2.0-1.21","1067","14","pre","5","afternoon","2026-04-08","2026-04-21","2026-04-12T20:26:54.079Z","Mozilla/5.0 (iPhone; CPU iPhone OS 18_7 like Mac OS X) AppleWebKit/605.1.15 (KHTML, like Gecko) Mobile/15E148","358","632","240","","961","<div class=""prompt"" style=""font-size:24px; margin-bottom:20px;"">Which word describes you more?</div>","0","pairing","22","entertaining","irresponsible","PosNeg","83","41","positive","negative","42","entertaining","left","true"
"html-keyboard-response","46","49678","0.0-2.0-0.22","1067","14","pre","5","afternoon","2026-04-08","2026-04-21","2026-04-12T20:26:54.079Z","Mozilla/5.0 (iPhone; CPU iPhone OS 18_7 like Mac OS X) AppleWebKit/605.1.15 (KHTML, like Gecko) Mobile/15E148","358","632","240","","null","<div style=""font-size:60px;"">+</div>","null","fixation","","","","","","","","","","","",""
"html-button-response","47","50774","0.0-2.0-1.22","1067","14","pre","5","afternoon","2026-04-08","2026-04-21","2026-04-12T20:26:54.079Z","Mozilla/5.0 (iPhone; CPU iPhone OS 18_7 like Mac OS X) AppleWebKit/605.1.15 (KHTML, like Gecko) Mobile/15E148","358","632","240","","1093","<div class=""prompt"" style=""font-size:24px; margin-bottom:20px;"">Which word describes you more?</div>","0","pairing","23","patient","empty","PosNeg","32","0","positive","negative","32","patient","left","true"
"html-keyboard-response","48","51576","0.0-2.0-0.23","1067","14","pre","5","afternoon","2026-04-08","2026-04-21","2026-04-12T20:26:54.079Z","Mozilla/5.0 (iPhone; CPU iPhone OS 18_7 like Mac OS X) AppleWebKit/605.1.15 (KHTML, like Gecko) Mobile/15E148","358","632","240","","null","<div style=""font-size:60px;"">+</div>","null","fixation","","","","","","","","","","","",""
"html-button-response","49","52977","0.0-2.0-1.23","1067","14","pre","5","afternoon","2026-04-08","2026-04-21","2026-04-12T20:26:54.079Z","Mozilla/5.0 (iPhone; CPU iPhone OS 18_7 like Mac OS X) AppleWebKit/605.1.15 (KHTML, like Gecko) Mobile/15E148","358","632","240","","1398","<div class=""prompt"" style=""font-size:24px; margin-bottom:20px;"">Which word describes you more?</div>","0","pairing","24","spectacular","burden","PosNeg","67","13","positive","negative","54","spectacular","left","true"
"instructions","50","53694","0.0-3.0","1067","14","pre","5","afternoon","2026-04-08","2026-04-21","2026-04-12T20:26:54.079Z","Mozilla/5.0 (iPhone; CPU iPhone OS 18_7 like Mac OS X) AppleWebKit/605.1.15 (KHTML, like Gecko) Mobile/15E148","358","632","240","[{""page_index"":0,""viewing_time"":714}]","715","","","","","","","","","","","","","","",""
