"trial_type","trial_index","time_elapsed","internal_node_id","PUNS_ID","session_number","session_phase","session_day","session_slot","ema_start_date","ema_post_start_date","experiment_start","browser","screen_width","screen_height","timezone_offset","view_history","rt","stimulus","response","which_experiment_phase","trial_number","left_word","right_word","valence","left_base_rating","right_base_rating","left_valence","right_valence","abs_diff","participant_response","chosen_side","valid_response"
"pavlovia","0","2646","0.0-0.0","1050","5","pre","2","afternoon","2026-03-31","2026-04-14","2026-04-01T17:47:22.629Z","Mozilla/5.0 (iPhone; CPU iPhone OS 18_7 like Mac OS X) AppleWebKit/605.1.15 (KHTML, like Gecko) Mobile/15E148","358","632","240","","","","","","","","","","","","","","","","",""
"instructions","1","7989","0.0-1.0","1050","5","pre","2","afternoon","2026-03-31","2026-04-14","2026-04-01T17:47:22.629Z","Mozilla/5.0 (iPhone; CPU iPhone OS 18_7 like Mac OS X) AppleWebKit/605.1.15 (KHTML, like Gecko) Mobile/15E148","358","632","240","[{""page_index"":0,""viewing_time"":1339},{""page_index"":1,""viewing_time"":1135},{""page_index"":2,""viewing_time"":2128},{""page_index"":3,""viewing_time"":734}]","5339","","","","","","","","","","","","","","",""
"html-keyboard-response","2","8794","0.0-2.0-0.0","1050","5","pre","2","afternoon","2026-03-31","2026-04-14","2026-04-01T17:47:22.629Z","Mozilla/5.0 (iPhone; CPU iPhone OS 18_7 like Mac OS X) AppleWebKit/605.1.15 (KHTML, like Gecko) Mobile/15E148","358","632","240","","null","<div style=""font-size:60px;"">+</div>","null","fixation","","","","","","","","","","","",""
"html-button-response","3","9920","0.0-2.0-1.0","1050","5","pre","2","afternoon","2026-03-31","2026-04-14","2026-04-01T17:47:22.629Z","Mozilla/5.0 (iPhone; CPU iPhone OS 18_7 like Mac OS X) AppleWebKit/605.1.15 (KHTML, like Gecko) Mobile/15E148","358","632","240","","1119","<div class=""prompt"" style=""font-size:24px; margin-bottom:20px;"">Which word describes you more?</div>","1","pairing","1","hopeless","reliable","PosNeg","83","75","negative","positive","8","reliable","right","true"
"html-keyboard-response","4","10723","0.0-2.0-0.1","1050","5","pre","2","afternoon","2026-03-31","2026-04-14","2026-04-01T17:47:22.629Z","Mozilla/5.0 (iPhone; CPU iPhone OS 18_7 like Mac OS X) AppleWebKit/605.1.15 (KHTML, like Gecko) Mobile/15E148","358","632","240","","null","<div style=""font-size:60px;"">+</div>","null","fixation","","","","","","","","","","","",""
"html-button-response","5","11782","0.0-2.0-1.1","1050","5","pre","2","afternoon","2026-03-31","2026-04-14","2026-04-01T17:47:22.629Z","Mozilla/5.0 (iPhone; CPU iPhone OS 18_7 like Mac OS X) AppleWebKit/605.1.15 (KHTML, like Gecko) Mobile/15E148","358","632","240","","1055","<div class=""prompt"" style=""font-size:24px; margin-bottom:20px;"">Which word describes you more?</div>","0","pairing","2","inspirational","traitor","PosNeg","100","24","positive","negative","76","inspirational","left","true"
"html-keyboard-response","6","12585","0.0-2.0-0.2","1050","5","pre","2","afternoon","2026-03-31","2026-04-14","2026-04-01T17:47:22.629Z","Mozilla/5.0 (iPhone; CPU iPhone OS 18_7 like Mac OS X) AppleWebKit/605.1.15 (KHTML, like Gecko) Mobile/15E148","358","632","240","","null","<div style=""font-size:60px;"">+</div>","null","fixation","","","","","","","","","","","",""
"html-button-response","7","13411","0.0-2.0-1.2","1050","5","pre","2","afternoon","2026-03-31","2026-04-14","2026-04-01T17:47:22.629Z","Mozilla/5.0 (iPhone; CPU iPhone OS 18_7 like Mac OS X) AppleWebKit/605.1.15 (KHTML, like Gecko) Mobile/15E148","358","632","240","","822","<div class=""prompt"" style=""font-size:24px; margin-bottom:20px;"">Which word describes you more?</div>","0","pairing","3","appealing","humorous","PosPos","58","92","positive","positive","34","appealing","left","true"
"html-keyboard-response","8","14213","0.0-2.0-0.3","1050","5","pre","2","afternoon","2026-03-31","2026-04-14","2026-04-01T17:47:22.629Z","Mozilla/5.0 (iPhone; CPU iPhone OS 18_7 like Mac OS X) AppleWebKit/605.1.15 (KHTML, like Gecko) Mobile/15E148","358","632","240","","null","<div style=""font-size:60px;"">+</div>","null","fixation","","","","","","","","","","","",""
"html-button-response","9","16227","0.0-2.0-1.3","1050","5","pre","2","afternoon","2026-03-31","2026-04-14","2026-04-01T17:47:22.629Z","Mozilla/5.0 (iPhone; CPU iPhone OS 18_7 like Mac OS X) AppleWebKit/605.1.15 (KHTML, like Gecko) Mobile/15E148","358","632","240","","2012","<div class=""prompt"" style=""font-size:24px; margin-bottom:20px;"">Which word describes you more?</div>","0","pairing","4","virtuous","fraud","PosNeg","93","59","positive","negative","34","virtuous","left","true"
"html-keyboard-response","10","17030","0.0-2.0-0.4","1050","5","pre","2","afternoon","2026-03-31","2026-04-14","2026-04-01T17:47:22.629Z","Mozilla/5.0 (iPhone; CPU iPhone OS 18_7 like Mac OS X) AppleWebKit/605.1.15 (KHTML, like Gecko) Mobile/15E148","358","632","240","","null","<div style=""font-size:60px;"">+</div>","null","fixation","","","","","","","","","","","",""
"html-button-response","11","17910","0.0-2.0-1.4","1050","5","pre","2","afternoon","2026-03-31","2026-04-14","2026-04-01T17:47:22.629Z","Mozilla/5.0 (iPhone; CPU iPhone OS 18_7 like Mac OS X) AppleWebKit/605.1.15 (KHTML, like Gecko) Mobile/15E148","358","632","240","","878","<div class=""prompt"" style=""font-size:24px; margin-bottom:20px;"">Which word describes you more?</div>","0","pairing","5","safe","delight","PosPos","61","89","positive","positive","28","safe","left","true"
"html-keyboard-response","12","18713","0.0-2.0-0.5","1050","5","pre","2","afternoon","2026-03-31","2026-04-14","2026-04-01T17:47:22.629Z","Mozilla/5.0 (iPhone; CPU iPhone OS 18_7 like Mac OS X) AppleWebKit/605.1.15 (KHTML, like Gecko) Mobile/15E148","358","632","240","","null","<div style=""font-size:60px;"">+</div>","null","fixation","","","","","","","","","","","",""
"html-button-response","13","19642","0.0-2.0-1.5","1050","5","pre","2","afternoon","2026-03-31","2026-04-14","2026-04-01T17:47:22.629Z","Mozilla/5.0 (iPhone; CPU iPhone OS 18_7 like Mac OS X) AppleWebKit/605.1.15 (KHTML, like Gecko) Mobile/15E148","358","632","240","","927","<div class=""prompt"" style=""font-size:24px; margin-bottom:20px;"">Which word describes you more?</div>","1","pairing","6","failure","successful","PosNeg","65","75","negative","positive","10","successful","right","true"
"html-keyboard-response","14","20445","0.0-2.0-0.6","1050","5","pre","2","afternoon","2026-03-31","2026-04-14","2026-04-01T17:47:22.629Z","Mozilla/5.0 (iPhone; CPU iPhone OS 18_7 like Mac OS X) AppleWebKit/605.1.15 (KHTML, like Gecko) Mobile/15E148","358","632","240","","null","<div style=""font-size:60px;"">+</div>","null","fixation","","","","","","","","","","","",""
"html-button-response","15","21292","0.0-2.0-1.6","1050","5","pre","2","afternoon","2026-03-31","2026-04-14","2026-04-01T17:47:22.629Z","Mozilla/5.0 (iPhone; CPU iPhone OS 18_7 like Mac OS X) AppleWebKit/605.1.15 (KHTML, like Gecko) Mobile/15E148","358","632","240","","841","<div class=""prompt"" style=""font-size:24px; margin-bottom:20px;"">Which word describes you more?</div>","1","pairing","7","empty","knowledgeable","PosNeg","32","99","negative","positive","67","knowledgeable","right","true"
"html-keyboard-response","16","22098","0.0-2.0-0.7","1050","5","pre","2","afternoon","2026-03-31","2026-04-14","2026-04-01T17:47:22.629Z","Mozilla/5.0 (iPhone; CPU iPhone OS 18_7 like Mac OS X) AppleWebKit/605.1.15 (KHTML, like Gecko) Mobile/15E148","358","632","240","","null","<div style=""font-size:60px;"">+</div>","null","fixation","","","","","","","","","","","",""
"html-button-response","17","22822","0.0-2.0-1.7","1050","5","pre","2","afternoon","2026-03-31","2026-04-14","2026-04-01T17:47:22.629Z","Mozilla/5.0 (iPhone; CPU iPhone OS 18_7 like Mac OS X) AppleWebKit/605.1.15 (KHTML, like Gecko) Mobile/15E148","358","632","240","","721","<div class=""prompt"" style=""font-size:24px; margin-bottom:20px;"">Which word describes you more?</div>","0","pairing","8","knowledgeable","malicious","PosNeg","99","85","positive","negative","14","knowledgeable","left","true"
"html-keyboard-response","18","23625","0.0-2.0-0.8","1050","5","pre","2","afternoon","2026-03-31","2026-04-14","2026-04-01T17:47:22.629Z","Mozilla/5.0 (iPhone; CPU iPhone OS 18_7 like Mac OS X) AppleWebKit/605.1.15 (KHTML, like Gecko) Mobile/15E148","358","632","240","","null","<div style=""font-size:60px;"">+</div>","null","fixation","","","","","","","","","","","",""
"html-button-response","19","24336","0.0-2.0-1.8","1050","5","pre","2","afternoon","2026-03-31","2026-04-14","2026-04-01T17:47:22.629Z","Mozilla/5.0 (iPhone; CPU iPhone OS 18_7 like Mac OS X) AppleWebKit/605.1.15 (KHTML, like Gecko) Mobile/15E148","358","632","240","","708","<div class=""prompt"" style=""font-size:24px; margin-bottom:20px;"">Which word describes you more?</div>","0","pairing","9","companion","disgusting","PosNeg","23","96","positive","negative","73","companion","left","true"
"html-keyboard-response","20","25138","0.0-2.0-0.9","1050","5","pre","2","afternoon","2026-03-31","2026-04-14","2026-04-01T17:47:22.629Z","Mozilla/5.0 (iPhone; CPU iPhone OS 18_7 like Mac OS X) AppleWebKit/605.1.15 (KHTML, like Gecko) Mobile/15E148","358","632","240","","null","<div style=""font-size:60px;"">+</div>","null","fixation","","","","","","","","","","","",""
"html-button-response","21","26617","0.0-2.0-1.9","1050","5","pre","2","afternoon","2026-03-31","2026-04-14","2026-04-01T17:47:22.629Z","Mozilla/5.0 (iPhone; CPU iPhone OS 18_7 like Mac OS X) AppleWebKit/605.1.15 (KHTML, like Gecko) Mobile/15E148","358","632","240","","1477","<div class=""prompt"" style=""font-size:24px; margin-bottom:20px;"">Which word describes you more?</div>","0","pairing","10","slob","humorous","PosNeg","50","92","negative","positive","42","slob","left","true"
"html-keyboard-response","22","27420","0.0-2.0-0.10","1050","5","pre","2","afternoon","2026-03-31","2026-04-14","2026-04-01T17:47:22.629Z","Mozilla/5.0 (iPhone; CPU iPhone OS 18_7 like Mac OS X) AppleWebKit/605.1.15 (KHTML, like Gecko) Mobile/15E148","358","632","240","","null","<div style=""font-size:60px;"">+</div>","null","fixation","","","","","","","","","","","",""
"html-button-response","23","28099","0.0-2.0-1.10","1050","5","pre","2","afternoon","2026-03-31","2026-04-14","2026-04-01T17:47:22.629Z","Mozilla/5.0 (iPhone; CPU iPhone OS 18_7 like Mac OS X) AppleWebKit/605.1.15 (KHTML, like Gecko) Mobile/15E148","358","632","240","","677","<div class=""prompt"" style=""font-size:24px; margin-bottom:20px;"">Which word describes you more?</div>","0","pairing","11","appealing","sloppy","PosNeg","58","60","positive","negative","2","appealing","left","true"
"html-keyboard-response","24","28903","0.0-2.0-0.11","1050","5","pre","2","afternoon","2026-03-31","2026-04-14","2026-04-01T17:47:22.629Z","Mozilla/5.0 (iPhone; CPU iPhone OS 18_7 like Mac OS X) AppleWebKit/605.1.15 (KHTML, like Gecko) Mobile/15E148","358","632","240","","null","<div style=""font-size:60px;"">+</div>","null","fixation","","","","","","","","","","","",""
"html-button-response","25","29681","0.0-2.0-1.11","1050","5","pre","2","afternoon","2026-03-31","2026-04-14","2026-04-01T17:47:22.629Z","Mozilla/5.0 (iPhone; CPU iPhone OS 18_7 like Mac OS X) AppleWebKit/605.1.15 (KHTML, like Gecko) Mobile/15E148","358","632","240","","775","<div class=""prompt"" style=""font-size:24px; margin-bottom:20px;"">Which word describes you more?</div>","0","pairing","12","sensible","asset","PosPos","88","52","positive","positive","36","sensible","left","true"
"html-keyboard-response","26","30483","0.0-2.0-0.12","1050","5","pre","2","afternoon","2026-03-31","2026-04-14","2026-04-01T17:47:22.629Z","Mozilla/5.0 (iPhone; CPU iPhone OS 18_7 like Mac OS X) AppleWebKit/605.1.15 (KHTML, like Gecko) Mobile/15E148","358","632","240","","null","<div style=""font-size:60px;"">+</div>","null","fixation","","","","","","","","","","","",""
"html-button-response","27","32228","0.0-2.0-1.12","1050","5","pre","2","afternoon","2026-03-31","2026-04-14","2026-04-01T17:47:22.629Z","Mozilla/5.0 (iPhone; CPU iPhone OS 18_7 like Mac OS X) AppleWebKit/605.1.15 (KHTML, like Gecko) Mobile/15E148","358","632","240","","1743","<div class=""prompt"" style=""font-size:24px; margin-bottom:20px;"">Which word describes you more?</div>","0","pairing","13","defective","creep","NegNeg","90","28","negative","negative","62","defective","left","true"
"html-keyboard-response","28","33030","0.0-2.0-0.13","1050","5","pre","2","afternoon","2026-03-31","2026-04-14","2026-04-01T17:47:22.629Z","Mozilla/5.0 (iPhone; CPU iPhone OS 18_7 like Mac OS X) AppleWebKit/605.1.15 (KHTML, like Gecko) Mobile/15E148","358","632","240","","null","<div style=""font-size:60px;"">+</div>","null","fixation","","","","","","","","","","","",""
"html-button-response","29","34160","0.0-2.0-1.13","1050","5","pre","2","afternoon","2026-03-31","2026-04-14","2026-04-01T17:47:22.629Z","Mozilla/5.0 (iPhone; CPU iPhone OS 18_7 like Mac OS X) AppleWebKit/605.1.15 (KHTML, like Gecko) Mobile/15E148","358","632","240","","1128","<div class=""prompt"" style=""font-size:24px; margin-bottom:20px;"">Which word describes you more?</div>","1","pairing","14","vengeful","alone","NegNeg","91","13","negative","negative","78","alone","right","true"
"html-keyboard-response","30","34963","0.0-2.0-0.14","1050","5","pre","2","afternoon","2026-03-31","2026-04-14","2026-04-01T17:47:22.629Z","Mozilla/5.0 (iPhone; CPU iPhone OS 18_7 like Mac OS X) AppleWebKit/605.1.15 (KHTML, like Gecko) Mobile/15E148","358","632","240","","null","<div style=""font-size:60px;"">+</div>","null","fixation","","","","","","","","","","","",""
"html-button-response","31","36506","0.0-2.0-1.14","1050","5","pre","2","afternoon","2026-03-31","2026-04-14","2026-04-01T17:47:22.629Z","Mozilla/5.0 (iPhone; CPU iPhone OS 18_7 like Mac OS X) AppleWebKit/605.1.15 (KHTML, like Gecko) Mobile/15E148","358","632","240","","1540","<div class=""prompt"" style=""font-size:24px; margin-bottom:20px;"">Which word describes you more?</div>","0","pairing","15","carefree","worthless","PosNeg","57","96","positive","negative","39","carefree","left","true"
"html-keyboard-response","32","37309","0.0-2.0-0.15","1050","5","pre","2","afternoon","2026-03-31","2026-04-14","2026-04-01T17:47:22.629Z","Mozilla/5.0 (iPhone; CPU iPhone OS 18_7 like Mac OS X) AppleWebKit/605.1.15 (KHTML, like Gecko) Mobile/15E148","358","632","240","","null","<div style=""font-size:60px;"">+</div>","null","fixation","","","","","","","","","","","",""
"html-button-response","33","40189","0.0-2.0-1.15","1050","5","pre","2","afternoon","2026-03-31","2026-04-14","2026-04-01T17:47:22.629Z","Mozilla/5.0 (iPhone; CPU iPhone OS 18_7 like Mac OS X) AppleWebKit/605.1.15 (KHTML, like Gecko) Mobile/15E148","358","632","240","","2879","<div class=""prompt"" style=""font-size:24px; margin-bottom:20px;"">Which word describes you more?</div>","1","pairing","16","traitor","sadistic","NegNeg","24","94","negative","negative","70","sadistic","right","true"
"html-keyboard-response","34","40991","0.0-2.0-0.16","1050","5","pre","2","afternoon","2026-03-31","2026-04-14","2026-04-01T17:47:22.629Z","Mozilla/5.0 (iPhone; CPU iPhone OS 18_7 like Mac OS X) AppleWebKit/605.1.15 (KHTML, like Gecko) Mobile/15E148","358","632","240","","null","<div style=""font-size:60px;"">+</div>","null","fixation","","","","","","","","","","","",""
"html-button-response","35","42751","0.0-2.0-1.16","1050","5","pre","2","afternoon","2026-03-31","2026-04-14","2026-04-01T17:47:22.629Z","Mozilla/5.0 (iPhone; CPU iPhone OS 18_7 like Mac OS X) AppleWebKit/605.1.15 (KHTML, like Gecko) Mobile/15E148","358","632","240","","1757","<div class=""prompt"" style=""font-size:24px; margin-bottom:20px;"">Which word describes you more?</div>","0","pairing","17","rude","cruel","NegNeg","78","54","negative","negative","24","rude","left","true"
"html-keyboard-response","36","43554","0.0-2.0-0.17","1050","5","pre","2","afternoon","2026-03-31","2026-04-14","2026-04-01T17:47:22.629Z","Mozilla/5.0 (iPhone; CPU iPhone OS 18_7 like Mac OS X) AppleWebKit/605.1.15 (KHTML, like Gecko) Mobile/15E148","358","632","240","","null","<div style=""font-size:60px;"">+</div>","null","fixation","","","","","","","","","","","",""
"html-button-response","37","44699","0.0-2.0-1.17","1050","5","pre","2","afternoon","2026-03-31","2026-04-14","2026-04-01T17:47:22.629Z","Mozilla/5.0 (iPhone; CPU iPhone OS 18_7 like Mac OS X) AppleWebKit/605.1.15 (KHTML, like Gecko) Mobile/15E148","358","632","240","","1143","<div class=""prompt"" style=""font-size:24px; margin-bottom:20px;"">Which word describes you more?</div>","0","pairing","18","delight","courteous","PosPos","89","85","positive","positive","4","delight","left","true"
"html-keyboard-response","38","45502","0.0-2.0-0.18","1050","5","pre","2","afternoon","2026-03-31","2026-04-14","2026-04-01T17:47:22.629Z","Mozilla/5.0 (iPhone; CPU iPhone OS 18_7 like Mac OS X) AppleWebKit/605.1.15 (KHTML, like Gecko) Mobile/15E148","358","632","240","","null","<div style=""font-size:60px;"">+</div>","null","fixation","","","","","","","","","","","",""
"html-button-response","39","46310","0.0-2.0-1.18","1050","5","pre","2","afternoon","2026-03-31","2026-04-14","2026-04-01T17:47:22.629Z","Mozilla/5.0 (iPhone; CPU iPhone OS 18_7 like Mac OS X) AppleWebKit/605.1.15 (KHTML, like Gecko) Mobile/15E148","358","632","240","","806","<div class=""prompt"" style=""font-size:24px; margin-bottom:20px;"">Which word describes you more?</div>","0","pairing","19","seeker","wise","PosPos","29","100","positive","positive","71","seeker","left","true"
"html-keyboard-response","40","47112","0.0-2.0-0.19","1050","5","pre","2","afternoon","2026-03-31","2026-04-14","2026-04-01T17:47:22.629Z","Mozilla/5.0 (iPhone; CPU iPhone OS 18_7 like Mac OS X) AppleWebKit/605.1.15 (KHTML, like Gecko) Mobile/15E148","358","632","240","","null","<div style=""font-size:60px;"">+</div>","null","fixation","","","","","","","","","","","",""
"html-button-response","41","49328","0.0-2.0-1.19","1050","5","pre","2","afternoon","2026-03-31","2026-04-14","2026-04-01T17:47:22.629Z","Mozilla/5.0 (iPhone; CPU iPhone OS 18_7 like Mac OS X) AppleWebKit/605.1.15 (KHTML, like Gecko) Mobile/15E148","358","632","240","","2213","<div class=""prompt"" style=""font-size:24px; margin-bottom:20px;"">Which word describes you more?</div>","0","pairing","20","gloomy","repulsive","NegNeg","36","94","negative","negative","58","gloomy","left","true"
"html-keyboard-response","42","50130","0.0-2.0-0.20","1050","5","pre","2","afternoon","2026-03-31","2026-04-14","2026-04-01T17:47:22.629Z","Mozilla/5.0 (iPhone; CPU iPhone OS 18_7 like Mac OS X) AppleWebKit/605.1.15 (KHTML, like Gecko) Mobile/15E148","358","632","240","","null","<div style=""font-size:60px;"">+</div>","null","fixation","","","","","","","","","","","",""
"html-button-response","43","51474","0.0-2.0-1.20","1050","5","pre","2","afternoon","2026-03-31","2026-04-14","2026-04-01T17:47:22.629Z","Mozilla/5.0 (iPhone; CPU iPhone OS 18_7 like Mac OS X) AppleWebKit/605.1.15 (KHTML, like Gecko) Mobile/15E148","358","632","240","","1342","<div class=""prompt"" style=""font-size:24px; margin-bottom:20px;"">Which word describes you more?</div>","1","pairing","21","irritating","carefree","PosNeg","91","57","negative","positive","34","carefree","right","true"
"html-keyboard-response","44","52276","0.0-2.0-0.21","1050","5","pre","2","afternoon","2026-03-31","2026-04-14","2026-04-01T17:47:22.629Z","Mozilla/5.0 (iPhone; CPU iPhone OS 18_7 like Mac OS X) AppleWebKit/605.1.15 (KHTML, like Gecko) Mobile/15E148","358","632","240","","null","<div style=""font-size:60px;"">+</div>","null","fixation","","","","","","","","","","","",""
"html-button-response","45","54208","0.0-2.0-1.21","1050","5","pre","2","afternoon","2026-03-31","2026-04-14","2026-04-01T17:47:22.629Z","Mozilla/5.0 (iPhone; CPU iPhone OS 18_7 like Mac OS X) AppleWebKit/605.1.15 (KHTML, like Gecko) Mobile/15E148","358","632","240","","1931","<div class=""prompt"" style=""font-size:24px; margin-bottom:20px;"">Which word describes you more?</div>","0","pairing","22","hater","loser","NegNeg","48","49","negative","negative","1","hater","left","true"
"html-keyboard-response","46","55010","0.0-2.0-0.22","1050","5","pre","2","afternoon","2026-03-31","2026-04-14","2026-04-01T17:47:22.629Z","Mozilla/5.0 (iPhone; CPU iPhone OS 18_7 like Mac OS X) AppleWebKit/605.1.15 (KHTML, like Gecko) Mobile/15E148","358","632","240","","null","<div style=""font-size:60px;"">+</div>","null","fixation","","","","","","","","","","","",""
"html-button-response","47","56355","0.0-2.0-1.22","1050","5","pre","2","afternoon","2026-03-31","2026-04-14","2026-04-01T17:47:22.629Z","Mozilla/5.0 (iPhone; CPU iPhone OS 18_7 like Mac OS X) AppleWebKit/605.1.15 (KHTML, like Gecko) Mobile/15E148","358","632","240","","1343","<div class=""prompt"" style=""font-size:24px; margin-bottom:20px;"">Which word describes you more?</div>","0","pairing","23","resourceful","friend","PosPos","93","15","positive","positive","78","resourceful","left","true"
"html-keyboard-response","48","57158","0.0-2.0-0.23","1050","5","pre","2","afternoon","2026-03-31","2026-04-14","2026-04-01T17:47:22.629Z","Mozilla/5.0 (iPhone; CPU iPhone OS 18_7 like Mac OS X) AppleWebKit/605.1.15 (KHTML, like Gecko) Mobile/15E148","358","632","240","","null","<div style=""font-size:60px;"">+</div>","null","fixation","","","","","","","","","","","",""
"html-button-response","49","58385","0.0-2.0-1.23","1050","5","pre","2","afternoon","2026-03-31","2026-04-14","2026-04-01T17:47:22.629Z","Mozilla/5.0 (iPhone; CPU iPhone OS 18_7 like Mac OS X) AppleWebKit/605.1.15 (KHTML, like Gecko) Mobile/15E148","358","632","240","","1226","<div class=""prompt"" style=""font-size:24px; margin-bottom:20px;"">Which word describes you more?</div>","1","pairing","24","disgusting","seeker","PosNeg","96","29","negative","positive","67","seeker","right","true"
"instructions","50","59582","0.0-3.0","1050","5","pre","2","afternoon","2026-03-31","2026-04-14","2026-04-01T17:47:22.629Z","Mozilla/5.0 (iPhone; CPU iPhone OS 18_7 like Mac OS X) AppleWebKit/605.1.15 (KHTML, like Gecko) Mobile/15E148","358","632","240","[{""page_index"":0,""viewing_time"":1192}]","1193","","","","","","","","","","","","","","",""
