"trial_type","trial_index","time_elapsed","internal_node_id","PUNS_ID","session_number","session_phase","session_day","session_slot","ema_start_date","ema_post_start_date","experiment_start","browser","screen_width","screen_height","timezone_offset","view_history","rt","stimulus","response","which_experiment_phase","trial_number","left_word","right_word","valence","left_base_rating","right_base_rating","left_valence","right_valence","abs_diff","participant_response","chosen_side","valid_response"
"pavlovia","0","2716","0.0-0.0","1083","28","pre","10","morning","2026-04-15","2026-04-27","2026-04-24T18:14:43.226Z","Mozilla/5.0 (iPhone; CPU iPhone OS 18_7 like Mac OS X) AppleWebKit/605.1.15 (KHTML, like Gecko) Mobile/15E148","358","632","420","","","","","","","","","","","","","","","","",""
"instructions","1","8223","0.0-1.0","1083","28","pre","10","morning","2026-04-15","2026-04-27","2026-04-24T18:14:43.226Z","Mozilla/5.0 (iPhone; CPU iPhone OS 18_7 like Mac OS X) AppleWebKit/605.1.15 (KHTML, like Gecko) Mobile/15E148","358","632","420","[{""page_index"":0,""viewing_time"":2929},{""page_index"":1,""viewing_time"":985},{""page_index"":2,""viewing_time"":850},{""page_index"":3,""viewing_time"":737}]","5502","","","","","","","","","","","","","","",""
"html-keyboard-response","2","9029","0.0-2.0-0.0","1083","28","pre","10","morning","2026-04-15","2026-04-27","2026-04-24T18:14:43.226Z","Mozilla/5.0 (iPhone; CPU iPhone OS 18_7 like Mac OS X) AppleWebKit/605.1.15 (KHTML, like Gecko) Mobile/15E148","358","632","420","","null","<div style=""font-size:60px;"">+</div>","null","fixation","","","","","","","","","","","",""
"html-button-response","3","11057","0.0-2.0-1.0","1083","28","pre","10","morning","2026-04-15","2026-04-27","2026-04-24T18:14:43.226Z","Mozilla/5.0 (iPhone; CPU iPhone OS 18_7 like Mac OS X) AppleWebKit/605.1.15 (KHTML, like Gecko) Mobile/15E148","358","632","420","","2022","<div class=""prompt"" style=""font-size:24px; margin-bottom:20px;"">Which word describes you more?</div>","1","pairing","1","flawless","authentic","PosPos","24","91","positive","positive","67","authentic","right","true"
"html-keyboard-response","4","11860","0.0-2.0-0.1","1083","28","pre","10","morning","2026-04-15","2026-04-27","2026-04-24T18:14:43.226Z","Mozilla/5.0 (iPhone; CPU iPhone OS 18_7 like Mac OS X) AppleWebKit/605.1.15 (KHTML, like Gecko) Mobile/15E148","358","632","420","","null","<div style=""font-size:60px;"">+</div>","null","fixation","","","","","","","","","","","",""
"html-button-response","5","13000","0.0-2.0-1.1","1083","28","pre","10","morning","2026-04-15","2026-04-27","2026-04-24T18:14:43.226Z","Mozilla/5.0 (iPhone; CPU iPhone OS 18_7 like Mac OS X) AppleWebKit/605.1.15 (KHTML, like Gecko) Mobile/15E148","358","632","420","","1136","<div class=""prompt"" style=""font-size:24px; margin-bottom:20px;"">Which word describes you more?</div>","0","pairing","2","lovable","satisfied","PosPos","94","57","positive","positive","37","lovable","left","true"
"html-keyboard-response","6","13803","0.0-2.0-0.2","1083","28","pre","10","morning","2026-04-15","2026-04-27","2026-04-24T18:14:43.226Z","Mozilla/5.0 (iPhone; CPU iPhone OS 18_7 like Mac OS X) AppleWebKit/605.1.15 (KHTML, like Gecko) Mobile/15E148","358","632","420","","null","<div style=""font-size:60px;"">+</div>","null","fixation","","","","","","","","","","","",""
"html-button-response","7","14966","0.0-2.0-1.2","1083","28","pre","10","morning","2026-04-15","2026-04-27","2026-04-24T18:14:43.226Z","Mozilla/5.0 (iPhone; CPU iPhone OS 18_7 like Mac OS X) AppleWebKit/605.1.15 (KHTML, like Gecko) Mobile/15E148","358","632","420","","1159","<div class=""prompt"" style=""font-size:24px; margin-bottom:20px;"">Which word describes you more?</div>","0","pairing","3","sloppy","headache","NegNeg","43","0","negative","negative","43","sloppy","left","true"
"html-keyboard-response","8","15768","0.0-2.0-0.3","1083","28","pre","10","morning","2026-04-15","2026-04-27","2026-04-24T18:14:43.226Z","Mozilla/5.0 (iPhone; CPU iPhone OS 18_7 like Mac OS X) AppleWebKit/605.1.15 (KHTML, like Gecko) Mobile/15E148","358","632","420","","null","<div style=""font-size:60px;"">+</div>","null","fixation","","","","","","","","","","","",""
"html-button-response","9","17703","0.0-2.0-1.3","1083","28","pre","10","morning","2026-04-15","2026-04-27","2026-04-24T18:14:43.226Z","Mozilla/5.0 (iPhone; CPU iPhone OS 18_7 like Mac OS X) AppleWebKit/605.1.15 (KHTML, like Gecko) Mobile/15E148","358","632","420","","1932","<div class=""prompt"" style=""font-size:24px; margin-bottom:20px;"">Which word describes you more?</div>","0","pairing","4","delight","insecure","PosNeg","58","96","positive","negative","38","delight","left","true"
"html-keyboard-response","10","18505","0.0-2.0-0.4","1083","28","pre","10","morning","2026-04-15","2026-04-27","2026-04-24T18:14:43.226Z","Mozilla/5.0 (iPhone; CPU iPhone OS 18_7 like Mac OS X) AppleWebKit/605.1.15 (KHTML, like Gecko) Mobile/15E148","358","632","420","","null","<div style=""font-size:60px;"">+</div>","null","fixation","","","","","","","","","","","",""
"html-button-response","11","20350","0.0-2.0-1.4","1083","28","pre","10","morning","2026-04-15","2026-04-27","2026-04-24T18:14:43.226Z","Mozilla/5.0 (iPhone; CPU iPhone OS 18_7 like Mac OS X) AppleWebKit/605.1.15 (KHTML, like Gecko) Mobile/15E148","358","632","420","","1842","<div class=""prompt"" style=""font-size:24px; margin-bottom:20px;"">Which word describes you more?</div>","1","pairing","5","outcast","idealistic","PosNeg","30","28","negative","positive","2","idealistic","right","true"
"html-keyboard-response","12","21153","0.0-2.0-0.5","1083","28","pre","10","morning","2026-04-15","2026-04-27","2026-04-24T18:14:43.226Z","Mozilla/5.0 (iPhone; CPU iPhone OS 18_7 like Mac OS X) AppleWebKit/605.1.15 (KHTML, like Gecko) Mobile/15E148","358","632","420","","null","<div style=""font-size:60px;"">+</div>","null","fixation","","","","","","","","","","","",""
"html-button-response","13","24831","0.0-2.0-1.5","1083","28","pre","10","morning","2026-04-15","2026-04-27","2026-04-24T18:14:43.226Z","Mozilla/5.0 (iPhone; CPU iPhone OS 18_7 like Mac OS X) AppleWebKit/605.1.15 (KHTML, like Gecko) Mobile/15E148","358","632","420","","3676","<div class=""prompt"" style=""font-size:24px; margin-bottom:20px;"">Which word describes you more?</div>","0","pairing","6","jealous","unique","PosNeg","96","29","negative","positive","67","jealous","left","true"
"html-keyboard-response","14","25634","0.0-2.0-0.6","1083","28","pre","10","morning","2026-04-15","2026-04-27","2026-04-24T18:14:43.226Z","Mozilla/5.0 (iPhone; CPU iPhone OS 18_7 like Mac OS X) AppleWebKit/605.1.15 (KHTML, like Gecko) Mobile/15E148","358","632","420","","null","<div style=""font-size:60px;"">+</div>","null","fixation","","","","","","","","","","","",""
"html-button-response","15","27000","0.0-2.0-1.6","1083","28","pre","10","morning","2026-04-15","2026-04-27","2026-04-24T18:14:43.226Z","Mozilla/5.0 (iPhone; CPU iPhone OS 18_7 like Mac OS X) AppleWebKit/605.1.15 (KHTML, like Gecko) Mobile/15E148","358","632","420","","1362","<div class=""prompt"" style=""font-size:24px; margin-bottom:20px;"">Which word describes you more?</div>","1","pairing","7","expert","thoughtful","PosPos","34","84","positive","positive","50","thoughtful","right","true"
"html-keyboard-response","16","27802","0.0-2.0-0.7","1083","28","pre","10","morning","2026-04-15","2026-04-27","2026-04-24T18:14:43.226Z","Mozilla/5.0 (iPhone; CPU iPhone OS 18_7 like Mac OS X) AppleWebKit/605.1.15 (KHTML, like Gecko) Mobile/15E148","358","632","420","","null","<div style=""font-size:60px;"">+</div>","null","fixation","","","","","","","","","","","",""
"html-button-response","17","30314","0.0-2.0-1.7","1083","28","pre","10","morning","2026-04-15","2026-04-27","2026-04-24T18:14:43.226Z","Mozilla/5.0 (iPhone; CPU iPhone OS 18_7 like Mac OS X) AppleWebKit/605.1.15 (KHTML, like Gecko) Mobile/15E148","358","632","420","","2507","<div class=""prompt"" style=""font-size:24px; margin-bottom:20px;"">Which word describes you more?</div>","0","pairing","8","outcast","cruel","NegNeg","30","1","negative","negative","29","outcast","left","true"
"html-keyboard-response","18","31117","0.0-2.0-0.8","1083","28","pre","10","morning","2026-04-15","2026-04-27","2026-04-24T18:14:43.226Z","Mozilla/5.0 (iPhone; CPU iPhone OS 18_7 like Mac OS X) AppleWebKit/605.1.15 (KHTML, like Gecko) Mobile/15E148","358","632","420","","null","<div style=""font-size:60px;"">+</div>","null","fixation","","","","","","","","","","","",""
"html-button-response","19","32579","0.0-2.0-1.8","1083","28","pre","10","morning","2026-04-15","2026-04-27","2026-04-24T18:14:43.226Z","Mozilla/5.0 (iPhone; CPU iPhone OS 18_7 like Mac OS X) AppleWebKit/605.1.15 (KHTML, like Gecko) Mobile/15E148","358","632","420","","1459","<div class=""prompt"" style=""font-size:24px; margin-bottom:20px;"">Which word describes you more?</div>","0","pairing","9","anxious","bitter","NegNeg","70","0","negative","negative","70","anxious","left","true"
"html-keyboard-response","20","33384","0.0-2.0-0.9","1083","28","pre","10","morning","2026-04-15","2026-04-27","2026-04-24T18:14:43.226Z","Mozilla/5.0 (iPhone; CPU iPhone OS 18_7 like Mac OS X) AppleWebKit/605.1.15 (KHTML, like Gecko) Mobile/15E148","358","632","420","","null","<div style=""font-size:60px;"">+</div>","null","fixation","","","","","","","","","","","",""
"html-button-response","21","34779","0.0-2.0-1.9","1083","28","pre","10","morning","2026-04-15","2026-04-27","2026-04-24T18:14:43.226Z","Mozilla/5.0 (iPhone; CPU iPhone OS 18_7 like Mac OS X) AppleWebKit/605.1.15 (KHTML, like Gecko) Mobile/15E148","358","632","420","","1391","<div class=""prompt"" style=""font-size:24px; margin-bottom:20px;"">Which word describes you more?</div>","1","pairing","10","hesitant","blissful","PosNeg","84","46","negative","positive","38","blissful","right","true"
"html-keyboard-response","22","35581","0.0-2.0-0.10","1083","28","pre","10","morning","2026-04-15","2026-04-27","2026-04-24T18:14:43.226Z","Mozilla/5.0 (iPhone; CPU iPhone OS 18_7 like Mac OS X) AppleWebKit/605.1.15 (KHTML, like Gecko) Mobile/15E148","358","632","420","","null","<div style=""font-size:60px;"">+</div>","null","fixation","","","","","","","","","","","",""
"html-button-response","23","37208","0.0-2.0-1.10","1083","28","pre","10","morning","2026-04-15","2026-04-27","2026-04-24T18:14:43.226Z","Mozilla/5.0 (iPhone; CPU iPhone OS 18_7 like Mac OS X) AppleWebKit/605.1.15 (KHTML, like Gecko) Mobile/15E148","358","632","420","","1625","<div class=""prompt"" style=""font-size:24px; margin-bottom:20px;"">Which word describes you more?</div>","0","pairing","11","helper","flawless","PosPos","95","24","positive","positive","71","helper","left","true"
"html-keyboard-response","24","38011","0.0-2.0-0.11","1083","28","pre","10","morning","2026-04-15","2026-04-27","2026-04-24T18:14:43.226Z","Mozilla/5.0 (iPhone; CPU iPhone OS 18_7 like Mac OS X) AppleWebKit/605.1.15 (KHTML, like Gecko) Mobile/15E148","358","632","420","","null","<div style=""font-size:60px;"">+</div>","null","fixation","","","","","","","","","","","",""
"html-button-response","25","39277","0.0-2.0-1.11","1083","28","pre","10","morning","2026-04-15","2026-04-27","2026-04-24T18:14:43.226Z","Mozilla/5.0 (iPhone; CPU iPhone OS 18_7 like Mac OS X) AppleWebKit/605.1.15 (KHTML, like Gecko) Mobile/15E148","358","632","420","","1264","<div class=""prompt"" style=""font-size:24px; margin-bottom:20px;"">Which word describes you more?</div>","0","pairing","12","adorable","companion","PosPos","92","60","positive","positive","32","adorable","left","true"
"html-keyboard-response","26","40080","0.0-2.0-0.12","1083","28","pre","10","morning","2026-04-15","2026-04-27","2026-04-24T18:14:43.226Z","Mozilla/5.0 (iPhone; CPU iPhone OS 18_7 like Mac OS X) AppleWebKit/605.1.15 (KHTML, like Gecko) Mobile/15E148","358","632","420","","null","<div style=""font-size:60px;"">+</div>","null","fixation","","","","","","","","","","","",""
"html-button-response","27","42545","0.0-2.0-1.12","1083","28","pre","10","morning","2026-04-15","2026-04-27","2026-04-24T18:14:43.226Z","Mozilla/5.0 (iPhone; CPU iPhone OS 18_7 like Mac OS X) AppleWebKit/605.1.15 (KHTML, like Gecko) Mobile/15E148","358","632","420","","2463","<div class=""prompt"" style=""font-size:24px; margin-bottom:20px;"">Which word describes you more?</div>","0","pairing","13","satisfied","skilled","PosPos","57","63","positive","positive","6","satisfied","left","true"
"html-keyboard-response","28","43348","0.0-2.0-0.13","1083","28","pre","10","morning","2026-04-15","2026-04-27","2026-04-24T18:14:43.226Z","Mozilla/5.0 (iPhone; CPU iPhone OS 18_7 like Mac OS X) AppleWebKit/605.1.15 (KHTML, like Gecko) Mobile/15E148","358","632","420","","null","<div style=""font-size:60px;"">+</div>","null","fixation","","","","","","","","","","","",""
"html-button-response","29","45011","0.0-2.0-1.13","1083","28","pre","10","morning","2026-04-15","2026-04-27","2026-04-24T18:14:43.226Z","Mozilla/5.0 (iPhone; CPU iPhone OS 18_7 like Mac OS X) AppleWebKit/605.1.15 (KHTML, like Gecko) Mobile/15E148","358","632","420","","1661","<div class=""prompt"" style=""font-size:24px; margin-bottom:20px;"">Which word describes you more?</div>","0","pairing","14","energetic","unlucky","PosNeg","51","49","positive","negative","2","energetic","left","true"
"html-keyboard-response","30","45814","0.0-2.0-0.14","1083","28","pre","10","morning","2026-04-15","2026-04-27","2026-04-24T18:14:43.226Z","Mozilla/5.0 (iPhone; CPU iPhone OS 18_7 like Mac OS X) AppleWebKit/605.1.15 (KHTML, like Gecko) Mobile/15E148","358","632","420","","null","<div style=""font-size:60px;"">+</div>","null","fixation","","","","","","","","","","","",""
"html-button-response","31","48443","0.0-2.0-1.14","1083","28","pre","10","morning","2026-04-15","2026-04-27","2026-04-24T18:14:43.226Z","Mozilla/5.0 (iPhone; CPU iPhone OS 18_7 like Mac OS X) AppleWebKit/605.1.15 (KHTML, like Gecko) Mobile/15E148","358","632","420","","2627","<div class=""prompt"" style=""font-size:24px; margin-bottom:20px;"">Which word describes you more?</div>","0","pairing","15","spontaneous","jealous","PosNeg","18","96","positive","negative","78","spontaneous","left","true"
"html-keyboard-response","32","49246","0.0-2.0-0.15","1083","28","pre","10","morning","2026-04-15","2026-04-27","2026-04-24T18:14:43.226Z","Mozilla/5.0 (iPhone; CPU iPhone OS 18_7 like Mac OS X) AppleWebKit/605.1.15 (KHTML, like Gecko) Mobile/15E148","358","632","420","","null","<div style=""font-size:60px;"">+</div>","null","fixation","","","","","","","","","","","",""
"html-button-response","33","51010","0.0-2.0-1.15","1083","28","pre","10","morning","2026-04-15","2026-04-27","2026-04-24T18:14:43.226Z","Mozilla/5.0 (iPhone; CPU iPhone OS 18_7 like Mac OS X) AppleWebKit/605.1.15 (KHTML, like Gecko) Mobile/15E148","358","632","420","","1761","<div class=""prompt"" style=""font-size:24px; margin-bottom:20px;"">Which word describes you more?</div>","1","pairing","16","irritating","virtuous","PosNeg","17","50","negative","positive","33","virtuous","right","true"
"html-keyboard-response","34","51812","0.0-2.0-0.16","1083","28","pre","10","morning","2026-04-15","2026-04-27","2026-04-24T18:14:43.226Z","Mozilla/5.0 (iPhone; CPU iPhone OS 18_7 like Mac OS X) AppleWebKit/605.1.15 (KHTML, like Gecko) Mobile/15E148","358","632","420","","null","<div style=""font-size:60px;"">+</div>","null","fixation","","","","","","","","","","","",""
"html-button-response","35","53438","0.0-2.0-1.16","1083","28","pre","10","morning","2026-04-15","2026-04-27","2026-04-24T18:14:43.226Z","Mozilla/5.0 (iPhone; CPU iPhone OS 18_7 like Mac OS X) AppleWebKit/605.1.15 (KHTML, like Gecko) Mobile/15E148","358","632","420","","1623","<div class=""prompt"" style=""font-size:24px; margin-bottom:20px;"">Which word describes you more?</div>","0","pairing","17","committed","insecure","PosNeg","68","96","positive","negative","28","committed","left","true"
"html-keyboard-response","36","54240","0.0-2.0-0.17","1083","28","pre","10","morning","2026-04-15","2026-04-27","2026-04-24T18:14:43.226Z","Mozilla/5.0 (iPhone; CPU iPhone OS 18_7 like Mac OS X) AppleWebKit/605.1.15 (KHTML, like Gecko) Mobile/15E148","358","632","420","","null","<div style=""font-size:60px;"">+</div>","null","fixation","","","","","","","","","","","",""
"html-button-response","37","55875","0.0-2.0-1.17","1083","28","pre","10","morning","2026-04-15","2026-04-27","2026-04-24T18:14:43.226Z","Mozilla/5.0 (iPhone; CPU iPhone OS 18_7 like Mac OS X) AppleWebKit/605.1.15 (KHTML, like Gecko) Mobile/15E148","358","632","420","","1632","<div class=""prompt"" style=""font-size:24px; margin-bottom:20px;"">Which word describes you more?</div>","1","pairing","18","parasite","adventurous","PosNeg","0","71","negative","positive","71","adventurous","right","true"
"html-keyboard-response","38","56678","0.0-2.0-0.18","1083","28","pre","10","morning","2026-04-15","2026-04-27","2026-04-24T18:14:43.226Z","Mozilla/5.0 (iPhone; CPU iPhone OS 18_7 like Mac OS X) AppleWebKit/605.1.15 (KHTML, like Gecko) Mobile/15E148","358","632","420","","null","<div style=""font-size:60px;"">+</div>","null","fixation","","","","","","","","","","","",""
"html-button-response","39","58723","0.0-2.0-1.18","1083","28","pre","10","morning","2026-04-15","2026-04-27","2026-04-24T18:14:43.226Z","Mozilla/5.0 (iPhone; CPU iPhone OS 18_7 like Mac OS X) AppleWebKit/605.1.15 (KHTML, like Gecko) Mobile/15E148","358","632","420","","2043","<div class=""prompt"" style=""font-size:24px; margin-bottom:20px;"">Which word describes you more?</div>","1","pairing","19","traitor","hopeless","NegNeg","0","3","negative","negative","3","hopeless","right","true"
"html-keyboard-response","40","59525","0.0-2.0-0.19","1083","28","pre","10","morning","2026-04-15","2026-04-27","2026-04-24T18:14:43.226Z","Mozilla/5.0 (iPhone; CPU iPhone OS 18_7 like Mac OS X) AppleWebKit/605.1.15 (KHTML, like Gecko) Mobile/15E148","358","632","420","","null","<div style=""font-size:60px;"">+</div>","null","fixation","","","","","","","","","","","",""
"html-button-response","41","63640","0.0-2.0-1.19","1083","28","pre","10","morning","2026-04-15","2026-04-27","2026-04-24T18:14:43.226Z","Mozilla/5.0 (iPhone; CPU iPhone OS 18_7 like Mac OS X) AppleWebKit/605.1.15 (KHTML, like Gecko) Mobile/15E148","358","632","420","","4112","<div class=""prompt"" style=""font-size:24px; margin-bottom:20px;"">Which word describes you more?</div>","0","pairing","20","disgrace","burden","NegNeg","0","38","negative","negative","38","disgrace","left","true"
"html-keyboard-response","42","64443","0.0-2.0-0.20","1083","28","pre","10","morning","2026-04-15","2026-04-27","2026-04-24T18:14:43.226Z","Mozilla/5.0 (iPhone; CPU iPhone OS 18_7 like Mac OS X) AppleWebKit/605.1.15 (KHTML, like Gecko) Mobile/15E148","358","632","420","","null","<div style=""font-size:60px;"">+</div>","null","fixation","","","","","","","","","","","",""
"html-button-response","43","65821","0.0-2.0-1.20","1083","28","pre","10","morning","2026-04-15","2026-04-27","2026-04-24T18:14:43.226Z","Mozilla/5.0 (iPhone; CPU iPhone OS 18_7 like Mac OS X) AppleWebKit/605.1.15 (KHTML, like Gecko) Mobile/15E148","358","632","420","","1376","<div class=""prompt"" style=""font-size:24px; margin-bottom:20px;"">Which word describes you more?</div>","1","pairing","21","terrible","knowledgeable","PosNeg","4","51","negative","positive","47","knowledgeable","right","true"
"html-keyboard-response","44","66624","0.0-2.0-0.21","1083","28","pre","10","morning","2026-04-15","2026-04-27","2026-04-24T18:14:43.226Z","Mozilla/5.0 (iPhone; CPU iPhone OS 18_7 like Mac OS X) AppleWebKit/605.1.15 (KHTML, like Gecko) Mobile/15E148","358","632","420","","null","<div style=""font-size:60px;"">+</div>","null","fixation","","","","","","","","","","","",""
"html-button-response","45","69668","0.0-2.0-1.21","1083","28","pre","10","morning","2026-04-15","2026-04-27","2026-04-24T18:14:43.226Z","Mozilla/5.0 (iPhone; CPU iPhone OS 18_7 like Mac OS X) AppleWebKit/605.1.15 (KHTML, like Gecko) Mobile/15E148","358","632","420","","3042","<div class=""prompt"" style=""font-size:24px; margin-bottom:20px;"">Which word describes you more?</div>","0","pairing","22","reliable","fraud","PosNeg","50","8","positive","negative","42","reliable","left","true"
"html-keyboard-response","46","70471","0.0-2.0-0.22","1083","28","pre","10","morning","2026-04-15","2026-04-27","2026-04-24T18:14:43.226Z","Mozilla/5.0 (iPhone; CPU iPhone OS 18_7 like Mac OS X) AppleWebKit/605.1.15 (KHTML, like Gecko) Mobile/15E148","358","632","420","","null","<div style=""font-size:60px;"">+</div>","null","fixation","","","","","","","","","","","",""
"html-button-response","47","71534","0.0-2.0-1.22","1083","28","pre","10","morning","2026-04-15","2026-04-27","2026-04-24T18:14:43.226Z","Mozilla/5.0 (iPhone; CPU iPhone OS 18_7 like Mac OS X) AppleWebKit/605.1.15 (KHTML, like Gecko) Mobile/15E148","358","632","420","","1061","<div class=""prompt"" style=""font-size:24px; margin-bottom:20px;"">Which word describes you more?</div>","0","pairing","23","adventurous","traitor","PosNeg","71","0","positive","negative","71","adventurous","left","true"
"html-keyboard-response","48","72336","0.0-2.0-0.23","1083","28","pre","10","morning","2026-04-15","2026-04-27","2026-04-24T18:14:43.226Z","Mozilla/5.0 (iPhone; CPU iPhone OS 18_7 like Mac OS X) AppleWebKit/605.1.15 (KHTML, like Gecko) Mobile/15E148","358","632","420","","null","<div style=""font-size:60px;"">+</div>","null","fixation","","","","","","","","","","","",""
"html-button-response","49","73737","0.0-2.0-1.23","1083","28","pre","10","morning","2026-04-15","2026-04-27","2026-04-24T18:14:43.226Z","Mozilla/5.0 (iPhone; CPU iPhone OS 18_7 like Mac OS X) AppleWebKit/605.1.15 (KHTML, like Gecko) Mobile/15E148","358","632","420","","1399","<div class=""prompt"" style=""font-size:24px; margin-bottom:20px;"">Which word describes you more?</div>","1","pairing","24","heartbroken","jealous","NegNeg","0","96","negative","negative","96","jealous","right","true"
"instructions","50","74549","0.0-3.0","1083","28","pre","10","morning","2026-04-15","2026-04-27","2026-04-24T18:14:43.226Z","Mozilla/5.0 (iPhone; CPU iPhone OS 18_7 like Mac OS X) AppleWebKit/605.1.15 (KHTML, like Gecko) Mobile/15E148","358","632","420","[{""page_index"":0,""viewing_time"":810}]","810","","","","","","","","","","","","","","",""
