"trial_type","trial_index","time_elapsed","internal_node_id","PUNS_ID","session_number","session_phase","session_day","session_slot","ema_start_date","ema_post_start_date","experiment_start","browser","screen_width","screen_height","timezone_offset","view_history","rt","stimulus","response","which_experiment_phase","trial_number","left_word","right_word","valence","left_base_rating","right_base_rating","left_valence","right_valence","abs_diff","participant_response","chosen_side","valid_response"
"pavlovia","0","1360","0.0-0.0","1071","48","post","6","evening","2026-06-09","2026-06-23","2026-06-29T03:09:58.807Z","Mozilla/5.0 (iPhone; CPU iPhone OS 18_7 like Mac OS X) AppleWebKit/605.1.15 (KHTML, like Gecko) Mobile/15E148","408","733","240","","","","","","","","","","","","","","","","",""
"instructions","1","3828","0.0-1.0","1071","48","post","6","evening","2026-06-09","2026-06-23","2026-06-29T03:09:58.807Z","Mozilla/5.0 (iPhone; CPU iPhone OS 18_7 like Mac OS X) AppleWebKit/605.1.15 (KHTML, like Gecko) Mobile/15E148","408","733","240","[{""page_index"":0,""viewing_time"":676},{""page_index"":1,""viewing_time"":598},{""page_index"":2,""viewing_time"":600},{""page_index"":3,""viewing_time"":592}]","2467","","","","","","","","","","","","","","",""
"html-keyboard-response","2","4631","0.0-2.0-0.0","1071","48","post","6","evening","2026-06-09","2026-06-23","2026-06-29T03:09:58.807Z","Mozilla/5.0 (iPhone; CPU iPhone OS 18_7 like Mac OS X) AppleWebKit/605.1.15 (KHTML, like Gecko) Mobile/15E148","408","733","240","","null","<div style=""font-size:60px;"">+</div>","null","fixation","","","","","","","","","","","",""
"html-button-response","3","5746","0.0-2.0-1.0","1071","48","post","6","evening","2026-06-09","2026-06-23","2026-06-29T03:09:58.807Z","Mozilla/5.0 (iPhone; CPU iPhone OS 18_7 like Mac OS X) AppleWebKit/605.1.15 (KHTML, like Gecko) Mobile/15E148","408","733","240","","1111","<div class=""prompt"" style=""font-size:24px; margin-bottom:20px;"">Which word describes you more?</div>","1","pairing","1","toxic","enthusiastic","PosNeg","26","58","negative","positive","32","enthusiastic","right","true"
"html-keyboard-response","4","6548","0.0-2.0-0.1","1071","48","post","6","evening","2026-06-09","2026-06-23","2026-06-29T03:09:58.807Z","Mozilla/5.0 (iPhone; CPU iPhone OS 18_7 like Mac OS X) AppleWebKit/605.1.15 (KHTML, like Gecko) Mobile/15E148","408","733","240","","null","<div style=""font-size:60px;"">+</div>","null","fixation","","","","","","","","","","","",""
"html-button-response","5","7528","0.0-2.0-1.1","1071","48","post","6","evening","2026-06-09","2026-06-23","2026-06-29T03:09:58.807Z","Mozilla/5.0 (iPhone; CPU iPhone OS 18_7 like Mac OS X) AppleWebKit/605.1.15 (KHTML, like Gecko) Mobile/15E148","408","733","240","","978","<div class=""prompt"" style=""font-size:24px; margin-bottom:20px;"">Which word describes you more?</div>","0","pairing","2","goodwilled","flawless","PosPos","78","15","positive","positive","63","goodwilled","left","true"
"html-keyboard-response","6","8331","0.0-2.0-0.2","1071","48","post","6","evening","2026-06-09","2026-06-23","2026-06-29T03:09:58.807Z","Mozilla/5.0 (iPhone; CPU iPhone OS 18_7 like Mac OS X) AppleWebKit/605.1.15 (KHTML, like Gecko) Mobile/15E148","408","733","240","","null","<div style=""font-size:60px;"">+</div>","null","fixation","","","","","","","","","","","",""
"html-button-response","7","9204","0.0-2.0-1.2","1071","48","post","6","evening","2026-06-09","2026-06-23","2026-06-29T03:09:58.807Z","Mozilla/5.0 (iPhone; CPU iPhone OS 18_7 like Mac OS X) AppleWebKit/605.1.15 (KHTML, like Gecko) Mobile/15E148","408","733","240","","872","<div class=""prompt"" style=""font-size:24px; margin-bottom:20px;"">Which word describes you more?</div>","1","pairing","3","flawless","satisfied","PosPos","15","92","positive","positive","77","satisfied","right","true"
"html-keyboard-response","8","10006","0.0-2.0-0.3","1071","48","post","6","evening","2026-06-09","2026-06-23","2026-06-29T03:09:58.807Z","Mozilla/5.0 (iPhone; CPU iPhone OS 18_7 like Mac OS X) AppleWebKit/605.1.15 (KHTML, like Gecko) Mobile/15E148","408","733","240","","null","<div style=""font-size:60px;"">+</div>","null","fixation","","","","","","","","","","","",""
"html-button-response","9","11170","0.0-2.0-1.3","1071","48","post","6","evening","2026-06-09","2026-06-23","2026-06-29T03:09:58.807Z","Mozilla/5.0 (iPhone; CPU iPhone OS 18_7 like Mac OS X) AppleWebKit/605.1.15 (KHTML, like Gecko) Mobile/15E148","408","733","240","","1162","<div class=""prompt"" style=""font-size:24px; margin-bottom:20px;"">Which word describes you more?</div>","0","pairing","4","liar","unfaithful","NegNeg","11","10","negative","negative","1","liar","left","true"
"html-keyboard-response","10","11972","0.0-2.0-0.4","1071","48","post","6","evening","2026-06-09","2026-06-23","2026-06-29T03:09:58.807Z","Mozilla/5.0 (iPhone; CPU iPhone OS 18_7 like Mac OS X) AppleWebKit/605.1.15 (KHTML, like Gecko) Mobile/15E148","408","733","240","","null","<div style=""font-size:60px;"">+</div>","null","fixation","","","","","","","","","","","",""
"html-button-response","11","13087","0.0-2.0-1.4","1071","48","post","6","evening","2026-06-09","2026-06-23","2026-06-29T03:09:58.807Z","Mozilla/5.0 (iPhone; CPU iPhone OS 18_7 like Mac OS X) AppleWebKit/605.1.15 (KHTML, like Gecko) Mobile/15E148","408","733","240","","1113","<div class=""prompt"" style=""font-size:24px; margin-bottom:20px;"">Which word describes you more?</div>","0","pairing","5","anxious","merciful","PosNeg","61","48","negative","positive","13","anxious","left","true"
"html-keyboard-response","12","13890","0.0-2.0-0.5","1071","48","post","6","evening","2026-06-09","2026-06-23","2026-06-29T03:09:58.807Z","Mozilla/5.0 (iPhone; CPU iPhone OS 18_7 like Mac OS X) AppleWebKit/605.1.15 (KHTML, like Gecko) Mobile/15E148","408","733","240","","null","<div style=""font-size:60px;"">+</div>","null","fixation","","","","","","","","","","","",""
"html-button-response","13","15110","0.0-2.0-1.5","1071","48","post","6","evening","2026-06-09","2026-06-23","2026-06-29T03:09:58.807Z","Mozilla/5.0 (iPhone; CPU iPhone OS 18_7 like Mac OS X) AppleWebKit/605.1.15 (KHTML, like Gecko) Mobile/15E148","408","733","240","","1219","<div class=""prompt"" style=""font-size:24px; margin-bottom:20px;"">Which word describes you more?</div>","0","pairing","6","resourceful","immoral","PosNeg","52","20","positive","negative","32","resourceful","left","true"
"html-keyboard-response","14","15913","0.0-2.0-0.6","1071","48","post","6","evening","2026-06-09","2026-06-23","2026-06-29T03:09:58.807Z","Mozilla/5.0 (iPhone; CPU iPhone OS 18_7 like Mac OS X) AppleWebKit/605.1.15 (KHTML, like Gecko) Mobile/15E148","408","733","240","","null","<div style=""font-size:60px;"">+</div>","null","fixation","","","","","","","","","","","",""
"html-button-response","15","16938","0.0-2.0-1.6","1071","48","post","6","evening","2026-06-09","2026-06-23","2026-06-29T03:09:58.807Z","Mozilla/5.0 (iPhone; CPU iPhone OS 18_7 like Mac OS X) AppleWebKit/605.1.15 (KHTML, like Gecko) Mobile/15E148","408","733","240","","1024","<div class=""prompt"" style=""font-size:24px; margin-bottom:20px;"">Which word describes you more?</div>","0","pairing","7","witty","unfaithful","PosNeg","54","10","positive","negative","44","witty","left","true"
"html-keyboard-response","16","17740","0.0-2.0-0.7","1071","48","post","6","evening","2026-06-09","2026-06-23","2026-06-29T03:09:58.807Z","Mozilla/5.0 (iPhone; CPU iPhone OS 18_7 like Mac OS X) AppleWebKit/605.1.15 (KHTML, like Gecko) Mobile/15E148","408","733","240","","null","<div style=""font-size:60px;"">+</div>","null","fixation","","","","","","","","","","","",""
"html-button-response","17","19088","0.0-2.0-1.7","1071","48","post","6","evening","2026-06-09","2026-06-23","2026-06-29T03:09:58.807Z","Mozilla/5.0 (iPhone; CPU iPhone OS 18_7 like Mac OS X) AppleWebKit/605.1.15 (KHTML, like Gecko) Mobile/15E148","408","733","240","","1346","<div class=""prompt"" style=""font-size:24px; margin-bottom:20px;"">Which word describes you more?</div>","0","pairing","8","graceful","dull","PosNeg","67","11","positive","negative","56","graceful","left","true"
"html-keyboard-response","18","19889","0.0-2.0-0.8","1071","48","post","6","evening","2026-06-09","2026-06-23","2026-06-29T03:09:58.807Z","Mozilla/5.0 (iPhone; CPU iPhone OS 18_7 like Mac OS X) AppleWebKit/605.1.15 (KHTML, like Gecko) Mobile/15E148","408","733","240","","null","<div style=""font-size:60px;"">+</div>","null","fixation","","","","","","","","","","","",""
"html-button-response","19","23005","0.0-2.0-1.8","1071","48","post","6","evening","2026-06-09","2026-06-23","2026-06-29T03:09:58.807Z","Mozilla/5.0 (iPhone; CPU iPhone OS 18_7 like Mac OS X) AppleWebKit/605.1.15 (KHTML, like Gecko) Mobile/15E148","408","733","240","","3114","<div class=""prompt"" style=""font-size:24px; margin-bottom:20px;"">Which word describes you more?</div>","1","pairing","9","violent","defective","NegNeg","13","10","negative","negative","3","defective","right","true"
"html-keyboard-response","20","23807","0.0-2.0-0.9","1071","48","post","6","evening","2026-06-09","2026-06-23","2026-06-29T03:09:58.807Z","Mozilla/5.0 (iPhone; CPU iPhone OS 18_7 like Mac OS X) AppleWebKit/605.1.15 (KHTML, like Gecko) Mobile/15E148","408","733","240","","null","<div style=""font-size:60px;"">+</div>","null","fixation","","","","","","","","","","","",""
"html-button-response","21","24621","0.0-2.0-1.9","1071","48","post","6","evening","2026-06-09","2026-06-23","2026-06-29T03:09:58.807Z","Mozilla/5.0 (iPhone; CPU iPhone OS 18_7 like Mac OS X) AppleWebKit/605.1.15 (KHTML, like Gecko) Mobile/15E148","408","733","240","","812","<div class=""prompt"" style=""font-size:24px; margin-bottom:20px;"">Which word describes you more?</div>","0","pairing","10","respectable","unique","PosPos","58","96","positive","positive","38","respectable","left","true"
"html-keyboard-response","22","25423","0.0-2.0-0.10","1071","48","post","6","evening","2026-06-09","2026-06-23","2026-06-29T03:09:58.807Z","Mozilla/5.0 (iPhone; CPU iPhone OS 18_7 like Mac OS X) AppleWebKit/605.1.15 (KHTML, like Gecko) Mobile/15E148","408","733","240","","null","<div style=""font-size:60px;"">+</div>","null","fixation","","","","","","","","","","","",""
"html-button-response","23","26431","0.0-2.0-1.10","1071","48","post","6","evening","2026-06-09","2026-06-23","2026-06-29T03:09:58.807Z","Mozilla/5.0 (iPhone; CPU iPhone OS 18_7 like Mac OS X) AppleWebKit/605.1.15 (KHTML, like Gecko) Mobile/15E148","408","733","240","","1007","<div class=""prompt"" style=""font-size:24px; margin-bottom:20px;"">Which word describes you more?</div>","0","pairing","11","anxious","flawless","PosNeg","61","15","negative","positive","46","anxious","left","true"
"html-keyboard-response","24","27232","0.0-2.0-0.11","1071","48","post","6","evening","2026-06-09","2026-06-23","2026-06-29T03:09:58.807Z","Mozilla/5.0 (iPhone; CPU iPhone OS 18_7 like Mac OS X) AppleWebKit/605.1.15 (KHTML, like Gecko) Mobile/15E148","408","733","240","","null","<div style=""font-size:60px;"">+</div>","null","fixation","","","","","","","","","","","",""
"html-button-response","25","27962","0.0-2.0-1.11","1071","48","post","6","evening","2026-06-09","2026-06-23","2026-06-29T03:09:58.807Z","Mozilla/5.0 (iPhone; CPU iPhone OS 18_7 like Mac OS X) AppleWebKit/605.1.15 (KHTML, like Gecko) Mobile/15E148","408","733","240","","728","<div class=""prompt"" style=""font-size:24px; margin-bottom:20px;"">Which word describes you more?</div>","0","pairing","12","satisfied","tolerant","PosPos","92","18","positive","positive","74","satisfied","left","true"
"html-keyboard-response","26","28765","0.0-2.0-0.12","1071","48","post","6","evening","2026-06-09","2026-06-23","2026-06-29T03:09:58.807Z","Mozilla/5.0 (iPhone; CPU iPhone OS 18_7 like Mac OS X) AppleWebKit/605.1.15 (KHTML, like Gecko) Mobile/15E148","408","733","240","","null","<div style=""font-size:60px;"">+</div>","null","fixation","","","","","","","","","","","",""
"html-button-response","27","29697","0.0-2.0-1.12","1071","48","post","6","evening","2026-06-09","2026-06-23","2026-06-29T03:09:58.807Z","Mozilla/5.0 (iPhone; CPU iPhone OS 18_7 like Mac OS X) AppleWebKit/605.1.15 (KHTML, like Gecko) Mobile/15E148","408","733","240","","931","<div class=""prompt"" style=""font-size:24px; margin-bottom:20px;"">Which word describes you more?</div>","1","pairing","13","fool","anxious","NegNeg","3","61","negative","negative","58","anxious","right","true"
"html-keyboard-response","28","30499","0.0-2.0-0.13","1071","48","post","6","evening","2026-06-09","2026-06-23","2026-06-29T03:09:58.807Z","Mozilla/5.0 (iPhone; CPU iPhone OS 18_7 like Mac OS X) AppleWebKit/605.1.15 (KHTML, like Gecko) Mobile/15E148","408","733","240","","null","<div style=""font-size:60px;"">+</div>","null","fixation","","","","","","","","","","","",""
"html-button-response","29","32306","0.0-2.0-1.13","1071","48","post","6","evening","2026-06-09","2026-06-23","2026-06-29T03:09:58.807Z","Mozilla/5.0 (iPhone; CPU iPhone OS 18_7 like Mac OS X) AppleWebKit/605.1.15 (KHTML, like Gecko) Mobile/15E148","408","733","240","","1806","<div class=""prompt"" style=""font-size:24px; margin-bottom:20px;"">Which word describes you more?</div>","1","pairing","14","disgusting","cruel","NegNeg","0","11","negative","negative","11","cruel","right","true"
"html-keyboard-response","30","33108","0.0-2.0-0.14","1071","48","post","6","evening","2026-06-09","2026-06-23","2026-06-29T03:09:58.807Z","Mozilla/5.0 (iPhone; CPU iPhone OS 18_7 like Mac OS X) AppleWebKit/605.1.15 (KHTML, like Gecko) Mobile/15E148","408","733","240","","null","<div style=""font-size:60px;"">+</div>","null","fixation","","","","","","","","","","","",""
"html-button-response","31","34514","0.0-2.0-1.14","1071","48","post","6","evening","2026-06-09","2026-06-23","2026-06-29T03:09:58.807Z","Mozilla/5.0 (iPhone; CPU iPhone OS 18_7 like Mac OS X) AppleWebKit/605.1.15 (KHTML, like Gecko) Mobile/15E148","408","733","240","","1404","<div class=""prompt"" style=""font-size:24px; margin-bottom:20px;"">Which word describes you more?</div>","1","pairing","15","spontaneous","respectable","PosPos","75","58","positive","positive","17","respectable","right","true"
"html-keyboard-response","32","35316","0.0-2.0-0.15","1071","48","post","6","evening","2026-06-09","2026-06-23","2026-06-29T03:09:58.807Z","Mozilla/5.0 (iPhone; CPU iPhone OS 18_7 like Mac OS X) AppleWebKit/605.1.15 (KHTML, like Gecko) Mobile/15E148","408","733","240","","null","<div style=""font-size:60px;"">+</div>","null","fixation","","","","","","","","","","","",""
"html-button-response","33","36514","0.0-2.0-1.15","1071","48","post","6","evening","2026-06-09","2026-06-23","2026-06-29T03:09:58.807Z","Mozilla/5.0 (iPhone; CPU iPhone OS 18_7 like Mac OS X) AppleWebKit/605.1.15 (KHTML, like Gecko) Mobile/15E148","408","733","240","","1196","<div class=""prompt"" style=""font-size:24px; margin-bottom:20px;"">Which word describes you more?</div>","1","pairing","16","problematic","delight","PosNeg","10","75","negative","positive","65","delight","right","true"
"html-keyboard-response","34","37316","0.0-2.0-0.16","1071","48","post","6","evening","2026-06-09","2026-06-23","2026-06-29T03:09:58.807Z","Mozilla/5.0 (iPhone; CPU iPhone OS 18_7 like Mac OS X) AppleWebKit/605.1.15 (KHTML, like Gecko) Mobile/15E148","408","733","240","","null","<div style=""font-size:60px;"">+</div>","null","fixation","","","","","","","","","","","",""
"html-button-response","35","38290","0.0-2.0-1.16","1071","48","post","6","evening","2026-06-09","2026-06-23","2026-06-29T03:09:58.807Z","Mozilla/5.0 (iPhone; CPU iPhone OS 18_7 like Mac OS X) AppleWebKit/605.1.15 (KHTML, like Gecko) Mobile/15E148","408","733","240","","972","<div class=""prompt"" style=""font-size:24px; margin-bottom:20px;"">Which word describes you more?</div>","0","pairing","17","peaceful","malicious","PosNeg","76","0","positive","negative","76","peaceful","left","true"
"html-keyboard-response","36","39093","0.0-2.0-0.17","1071","48","post","6","evening","2026-06-09","2026-06-23","2026-06-29T03:09:58.807Z","Mozilla/5.0 (iPhone; CPU iPhone OS 18_7 like Mac OS X) AppleWebKit/605.1.15 (KHTML, like Gecko) Mobile/15E148","408","733","240","","null","<div style=""font-size:60px;"">+</div>","null","fixation","","","","","","","","","","","",""
"html-button-response","37","40630","0.0-2.0-1.17","1071","48","post","6","evening","2026-06-09","2026-06-23","2026-06-29T03:09:58.807Z","Mozilla/5.0 (iPhone; CPU iPhone OS 18_7 like Mac OS X) AppleWebKit/605.1.15 (KHTML, like Gecko) Mobile/15E148","408","733","240","","1535","<div class=""prompt"" style=""font-size:24px; margin-bottom:20px;"">Which word describes you more?</div>","0","pairing","18","seeker","empty","PosNeg","18","19","positive","negative","1","seeker","left","true"
"html-keyboard-response","38","41432","0.0-2.0-0.18","1071","48","post","6","evening","2026-06-09","2026-06-23","2026-06-29T03:09:58.807Z","Mozilla/5.0 (iPhone; CPU iPhone OS 18_7 like Mac OS X) AppleWebKit/605.1.15 (KHTML, like Gecko) Mobile/15E148","408","733","240","","null","<div style=""font-size:60px;"">+</div>","null","fixation","","","","","","","","","","","",""
"html-button-response","39","42323","0.0-2.0-1.18","1071","48","post","6","evening","2026-06-09","2026-06-23","2026-06-29T03:09:58.807Z","Mozilla/5.0 (iPhone; CPU iPhone OS 18_7 like Mac OS X) AppleWebKit/605.1.15 (KHTML, like Gecko) Mobile/15E148","408","733","240","","889","<div class=""prompt"" style=""font-size:24px; margin-bottom:20px;"">Which word describes you more?</div>","0","pairing","19","esteemed","shameful","PosNeg","47","11","positive","negative","36","esteemed","left","true"
"html-keyboard-response","40","43125","0.0-2.0-0.19","1071","48","post","6","evening","2026-06-09","2026-06-23","2026-06-29T03:09:58.807Z","Mozilla/5.0 (iPhone; CPU iPhone OS 18_7 like Mac OS X) AppleWebKit/605.1.15 (KHTML, like Gecko) Mobile/15E148","408","733","240","","null","<div style=""font-size:60px;"">+</div>","null","fixation","","","","","","","","","","","",""
"html-button-response","41","44382","0.0-2.0-1.19","1071","48","post","6","evening","2026-06-09","2026-06-23","2026-06-29T03:09:58.807Z","Mozilla/5.0 (iPhone; CPU iPhone OS 18_7 like Mac OS X) AppleWebKit/605.1.15 (KHTML, like Gecko) Mobile/15E148","408","733","240","","1255","<div class=""prompt"" style=""font-size:24px; margin-bottom:20px;"">Which word describes you more?</div>","0","pairing","20","energetic","irritating","PosNeg","69","8","positive","negative","61","energetic","left","true"
"html-keyboard-response","42","45184","0.0-2.0-0.20","1071","48","post","6","evening","2026-06-09","2026-06-23","2026-06-29T03:09:58.807Z","Mozilla/5.0 (iPhone; CPU iPhone OS 18_7 like Mac OS X) AppleWebKit/605.1.15 (KHTML, like Gecko) Mobile/15E148","408","733","240","","null","<div style=""font-size:60px;"">+</div>","null","fixation","","","","","","","","","","","",""
"html-button-response","43","47074","0.0-2.0-1.20","1071","48","post","6","evening","2026-06-09","2026-06-23","2026-06-29T03:09:58.807Z","Mozilla/5.0 (iPhone; CPU iPhone OS 18_7 like Mac OS X) AppleWebKit/605.1.15 (KHTML, like Gecko) Mobile/15E148","408","733","240","","1888","<div class=""prompt"" style=""font-size:24px; margin-bottom:20px;"">Which word describes you more?</div>","0","pairing","21","awkward","unbearable","NegNeg","45","8","negative","negative","37","awkward","left","true"
"html-keyboard-response","44","47876","0.0-2.0-0.21","1071","48","post","6","evening","2026-06-09","2026-06-23","2026-06-29T03:09:58.807Z","Mozilla/5.0 (iPhone; CPU iPhone OS 18_7 like Mac OS X) AppleWebKit/605.1.15 (KHTML, like Gecko) Mobile/15E148","408","733","240","","null","<div style=""font-size:60px;"">+</div>","null","fixation","","","","","","","","","","","",""
"html-button-response","45","49032","0.0-2.0-1.21","1071","48","post","6","evening","2026-06-09","2026-06-23","2026-06-29T03:09:58.807Z","Mozilla/5.0 (iPhone; CPU iPhone OS 18_7 like Mac OS X) AppleWebKit/605.1.15 (KHTML, like Gecko) Mobile/15E148","408","733","240","","1154","<div class=""prompt"" style=""font-size:24px; margin-bottom:20px;"">Which word describes you more?</div>","1","pairing","22","coward","committed","PosNeg","15","82","negative","positive","67","committed","right","true"
"html-keyboard-response","46","49834","0.0-2.0-0.22","1071","48","post","6","evening","2026-06-09","2026-06-23","2026-06-29T03:09:58.807Z","Mozilla/5.0 (iPhone; CPU iPhone OS 18_7 like Mac OS X) AppleWebKit/605.1.15 (KHTML, like Gecko) Mobile/15E148","408","733","240","","null","<div style=""font-size:60px;"">+</div>","null","fixation","","","","","","","","","","","",""
"html-button-response","47","50815","0.0-2.0-1.22","1071","48","post","6","evening","2026-06-09","2026-06-23","2026-06-29T03:09:58.807Z","Mozilla/5.0 (iPhone; CPU iPhone OS 18_7 like Mac OS X) AppleWebKit/605.1.15 (KHTML, like Gecko) Mobile/15E148","408","733","240","","979","<div class=""prompt"" style=""font-size:24px; margin-bottom:20px;"">Which word describes you more?</div>","1","pairing","23","champion","healthy","PosPos","72","81","positive","positive","9","healthy","right","true"
"html-keyboard-response","48","51617","0.0-2.0-0.23","1071","48","post","6","evening","2026-06-09","2026-06-23","2026-06-29T03:09:58.807Z","Mozilla/5.0 (iPhone; CPU iPhone OS 18_7 like Mac OS X) AppleWebKit/605.1.15 (KHTML, like Gecko) Mobile/15E148","408","733","240","","null","<div style=""font-size:60px;"">+</div>","null","fixation","","","","","","","","","","","",""
"html-button-response","49","54279","0.0-2.0-1.23","1071","48","post","6","evening","2026-06-09","2026-06-23","2026-06-29T03:09:58.807Z","Mozilla/5.0 (iPhone; CPU iPhone OS 18_7 like Mac OS X) AppleWebKit/605.1.15 (KHTML, like Gecko) Mobile/15E148","408","733","240","","2661","<div class=""prompt"" style=""font-size:24px; margin-bottom:20px;"">Which word describes you more?</div>","1","pairing","24","untrustworthy","inadequate","NegNeg","8","18","negative","negative","10","inadequate","right","true"
"instructions","50","55103","0.0-3.0","1071","48","post","6","evening","2026-06-09","2026-06-23","2026-06-29T03:09:58.807Z","Mozilla/5.0 (iPhone; CPU iPhone OS 18_7 like Mac OS X) AppleWebKit/605.1.15 (KHTML, like Gecko) Mobile/15E148","408","733","240","[{""page_index"":0,""viewing_time"":822}]","823","","","","","","","","","","","","","","",""
