"trial_type","trial_index","time_elapsed","internal_node_id","PUNS_ID","session_number","session_phase","session_day","session_slot","ema_start_date","ema_post_start_date","experiment_start","browser","screen_width","screen_height","timezone_offset","view_history","rt","stimulus","response","which_experiment_phase","trial_number","left_word","right_word","valence","left_base_rating","right_base_rating","left_valence","right_valence","abs_diff","participant_response","chosen_side","valid_response"
"pavlovia","0","1503","0.0-0.0","1088","26","pre","9","afternoon","2026-04-24","2026-05-07","2026-05-02T20:43:05.458Z","Mozilla/5.0 (iPhone; CPU iPhone OS 18_7 like Mac OS X) AppleWebKit/605.1.15 (KHTML, like Gecko) Mobile/15E148","358","632","240","","","","","","","","","","","","","","","","",""
"instructions","1","4637","0.0-1.0","1088","26","pre","9","afternoon","2026-04-24","2026-05-07","2026-05-02T20:43:05.458Z","Mozilla/5.0 (iPhone; CPU iPhone OS 18_7 like Mac OS X) AppleWebKit/605.1.15 (KHTML, like Gecko) Mobile/15E148","358","632","240","[{""page_index"":0,""viewing_time"":610},{""page_index"":1,""viewing_time"":501},{""page_index"":2,""viewing_time"":1485},{""page_index"":3,""viewing_time"":529}]","3126","","","","","","","","","","","","","","",""
"html-keyboard-response","2","5442","0.0-2.0-0.0","1088","26","pre","9","afternoon","2026-04-24","2026-05-07","2026-05-02T20:43:05.458Z","Mozilla/5.0 (iPhone; CPU iPhone OS 18_7 like Mac OS X) AppleWebKit/605.1.15 (KHTML, like Gecko) Mobile/15E148","358","632","240","","null","<div style=""font-size:60px;"">+</div>","null","fixation","","","","","","","","","","","",""
"html-button-response","3","9415","0.0-2.0-1.0","1088","26","pre","9","afternoon","2026-04-24","2026-05-07","2026-05-02T20:43:05.458Z","Mozilla/5.0 (iPhone; CPU iPhone OS 18_7 like Mac OS X) AppleWebKit/605.1.15 (KHTML, like Gecko) Mobile/15E148","358","632","240","","3966","<div class=""prompt"" style=""font-size:24px; margin-bottom:20px;"">Which word describes you more?</div>","1","pairing","1","fool","disastrous","NegNeg","4","0","negative","negative","4","disastrous","right","true"
"html-keyboard-response","4","10218","0.0-2.0-0.1","1088","26","pre","9","afternoon","2026-04-24","2026-05-07","2026-05-02T20:43:05.458Z","Mozilla/5.0 (iPhone; CPU iPhone OS 18_7 like Mac OS X) AppleWebKit/605.1.15 (KHTML, like Gecko) Mobile/15E148","358","632","240","","null","<div style=""font-size:60px;"">+</div>","null","fixation","","","","","","","","","","","",""
"html-button-response","5","11058","0.0-2.0-1.1","1088","26","pre","9","afternoon","2026-04-24","2026-05-07","2026-05-02T20:43:05.458Z","Mozilla/5.0 (iPhone; CPU iPhone OS 18_7 like Mac OS X) AppleWebKit/605.1.15 (KHTML, like Gecko) Mobile/15E148","358","632","240","","836","<div class=""prompt"" style=""font-size:24px; margin-bottom:20px;"">Which word describes you more?</div>","1","pairing","2","sloppy","distressed","NegNeg","0","86","negative","negative","86","distressed","right","true"
"html-keyboard-response","6","11861","0.0-2.0-0.2","1088","26","pre","9","afternoon","2026-04-24","2026-05-07","2026-05-02T20:43:05.458Z","Mozilla/5.0 (iPhone; CPU iPhone OS 18_7 like Mac OS X) AppleWebKit/605.1.15 (KHTML, like Gecko) Mobile/15E148","358","632","240","","null","<div style=""font-size:60px;"">+</div>","null","fixation","","","","","","","","","","","",""
"html-button-response","7","13206","0.0-2.0-1.2","1088","26","pre","9","afternoon","2026-04-24","2026-05-07","2026-05-02T20:43:05.458Z","Mozilla/5.0 (iPhone; CPU iPhone OS 18_7 like Mac OS X) AppleWebKit/605.1.15 (KHTML, like Gecko) Mobile/15E148","358","632","240","","1341","<div class=""prompt"" style=""font-size:24px; margin-bottom:20px;"">Which word describes you more?</div>","0","pairing","3","brave","degenerate","PosNeg","50","0","positive","negative","50","brave","left","true"
"html-keyboard-response","8","14009","0.0-2.0-0.3","1088","26","pre","9","afternoon","2026-04-24","2026-05-07","2026-05-02T20:43:05.458Z","Mozilla/5.0 (iPhone; CPU iPhone OS 18_7 like Mac OS X) AppleWebKit/605.1.15 (KHTML, like Gecko) Mobile/15E148","358","632","240","","null","<div style=""font-size:60px;"">+</div>","null","fixation","","","","","","","","","","","",""
"html-button-response","9","14722","0.0-2.0-1.3","1088","26","pre","9","afternoon","2026-04-24","2026-05-07","2026-05-02T20:43:05.458Z","Mozilla/5.0 (iPhone; CPU iPhone OS 18_7 like Mac OS X) AppleWebKit/605.1.15 (KHTML, like Gecko) Mobile/15E148","358","632","240","","710","<div class=""prompt"" style=""font-size:24px; margin-bottom:20px;"">Which word describes you more?</div>","0","pairing","4","healthy","inadequate","PosNeg","82","7","positive","negative","75","healthy","left","true"
"html-keyboard-response","10","15525","0.0-2.0-0.4","1088","26","pre","9","afternoon","2026-04-24","2026-05-07","2026-05-02T20:43:05.458Z","Mozilla/5.0 (iPhone; CPU iPhone OS 18_7 like Mac OS X) AppleWebKit/605.1.15 (KHTML, like Gecko) Mobile/15E148","358","632","240","","null","<div style=""font-size:60px;"">+</div>","null","fixation","","","","","","","","","","","",""
"html-button-response","11","17227","0.0-2.0-1.4","1088","26","pre","9","afternoon","2026-04-24","2026-05-07","2026-05-02T20:43:05.458Z","Mozilla/5.0 (iPhone; CPU iPhone OS 18_7 like Mac OS X) AppleWebKit/605.1.15 (KHTML, like Gecko) Mobile/15E148","358","632","240","","1699","<div class=""prompt"" style=""font-size:24px; margin-bottom:20px;"">Which word describes you more?</div>","1","pairing","5","cruel","knowledgeable","PosNeg","0","87","negative","positive","87","knowledgeable","right","true"
"html-keyboard-response","12","18030","0.0-2.0-0.5","1088","26","pre","9","afternoon","2026-04-24","2026-05-07","2026-05-02T20:43:05.458Z","Mozilla/5.0 (iPhone; CPU iPhone OS 18_7 like Mac OS X) AppleWebKit/605.1.15 (KHTML, like Gecko) Mobile/15E148","358","632","240","","null","<div style=""font-size:60px;"">+</div>","null","fixation","","","","","","","","","","","",""
"html-button-response","13","19910","0.0-2.0-1.5","1088","26","pre","9","afternoon","2026-04-24","2026-05-07","2026-05-02T20:43:05.458Z","Mozilla/5.0 (iPhone; CPU iPhone OS 18_7 like Mac OS X) AppleWebKit/605.1.15 (KHTML, like Gecko) Mobile/15E148","358","632","240","","1878","<div class=""prompt"" style=""font-size:24px; margin-bottom:20px;"">Which word describes you more?</div>","0","pairing","6","hesitant","merciful","PosNeg","84","35","negative","positive","49","hesitant","left","true"
"html-keyboard-response","14","20713","0.0-2.0-0.6","1088","26","pre","9","afternoon","2026-04-24","2026-05-07","2026-05-02T20:43:05.458Z","Mozilla/5.0 (iPhone; CPU iPhone OS 18_7 like Mac OS X) AppleWebKit/605.1.15 (KHTML, like Gecko) Mobile/15E148","358","632","240","","null","<div style=""font-size:60px;"">+</div>","null","fixation","","","","","","","","","","","",""
"html-button-response","15","21679","0.0-2.0-1.6","1088","26","pre","9","afternoon","2026-04-24","2026-05-07","2026-05-02T20:43:05.458Z","Mozilla/5.0 (iPhone; CPU iPhone OS 18_7 like Mac OS X) AppleWebKit/605.1.15 (KHTML, like Gecko) Mobile/15E148","358","632","240","","961","<div class=""prompt"" style=""font-size:24px; margin-bottom:20px;"">Which word describes you more?</div>","1","pairing","7","asset","capable","PosPos","100","94","positive","positive","6","capable","right","true"
"html-keyboard-response","16","22481","0.0-2.0-0.7","1088","26","pre","9","afternoon","2026-04-24","2026-05-07","2026-05-02T20:43:05.458Z","Mozilla/5.0 (iPhone; CPU iPhone OS 18_7 like Mac OS X) AppleWebKit/605.1.15 (KHTML, like Gecko) Mobile/15E148","358","632","240","","null","<div style=""font-size:60px;"">+</div>","null","fixation","","","","","","","","","","","",""
"html-button-response","17","23844","0.0-2.0-1.7","1088","26","pre","9","afternoon","2026-04-24","2026-05-07","2026-05-02T20:43:05.458Z","Mozilla/5.0 (iPhone; CPU iPhone OS 18_7 like Mac OS X) AppleWebKit/605.1.15 (KHTML, like Gecko) Mobile/15E148","358","632","240","","1358","<div class=""prompt"" style=""font-size:24px; margin-bottom:20px;"">Which word describes you more?</div>","0","pairing","8","distressed","disastrous","NegNeg","86","0","negative","negative","86","distressed","left","true"
"html-keyboard-response","18","24647","0.0-2.0-0.8","1088","26","pre","9","afternoon","2026-04-24","2026-05-07","2026-05-02T20:43:05.458Z","Mozilla/5.0 (iPhone; CPU iPhone OS 18_7 like Mac OS X) AppleWebKit/605.1.15 (KHTML, like Gecko) Mobile/15E148","358","632","240","","null","<div style=""font-size:60px;"">+</div>","null","fixation","","","","","","","","","","","",""
"html-button-response","19","25811","0.0-2.0-1.8","1088","26","pre","9","afternoon","2026-04-24","2026-05-07","2026-05-02T20:43:05.458Z","Mozilla/5.0 (iPhone; CPU iPhone OS 18_7 like Mac OS X) AppleWebKit/605.1.15 (KHTML, like Gecko) Mobile/15E148","358","632","240","","1162","<div class=""prompt"" style=""font-size:24px; margin-bottom:20px;"">Which word describes you more?</div>","0","pairing","9","burden","champion","PosNeg","4","15","negative","positive","11","burden","left","true"
"html-keyboard-response","20","26614","0.0-2.0-0.9","1088","26","pre","9","afternoon","2026-04-24","2026-05-07","2026-05-02T20:43:05.458Z","Mozilla/5.0 (iPhone; CPU iPhone OS 18_7 like Mac OS X) AppleWebKit/605.1.15 (KHTML, like Gecko) Mobile/15E148","358","632","240","","null","<div style=""font-size:60px;"">+</div>","null","fixation","","","","","","","","","","","",""
"html-button-response","21","27493","0.0-2.0-1.9","1088","26","pre","9","afternoon","2026-04-24","2026-05-07","2026-05-02T20:43:05.458Z","Mozilla/5.0 (iPhone; CPU iPhone OS 18_7 like Mac OS X) AppleWebKit/605.1.15 (KHTML, like Gecko) Mobile/15E148","358","632","240","","877","<div class=""prompt"" style=""font-size:24px; margin-bottom:20px;"">Which word describes you more?</div>","0","pairing","10","distressed","champion","PosNeg","86","15","negative","positive","71","distressed","left","true"
"html-keyboard-response","22","28295","0.0-2.0-0.10","1088","26","pre","9","afternoon","2026-04-24","2026-05-07","2026-05-02T20:43:05.458Z","Mozilla/5.0 (iPhone; CPU iPhone OS 18_7 like Mac OS X) AppleWebKit/605.1.15 (KHTML, like Gecko) Mobile/15E148","358","632","240","","null","<div style=""font-size:60px;"">+</div>","null","fixation","","","","","","","","","","","",""
"html-button-response","23","29629","0.0-2.0-1.10","1088","26","pre","9","afternoon","2026-04-24","2026-05-07","2026-05-02T20:43:05.458Z","Mozilla/5.0 (iPhone; CPU iPhone OS 18_7 like Mac OS X) AppleWebKit/605.1.15 (KHTML, like Gecko) Mobile/15E148","358","632","240","","1331","<div class=""prompt"" style=""font-size:24px; margin-bottom:20px;"">Which word describes you more?</div>","0","pairing","11","brave","shameful","PosNeg","50","59","positive","negative","9","brave","left","true"
"html-keyboard-response","24","30432","0.0-2.0-0.11","1088","26","pre","9","afternoon","2026-04-24","2026-05-07","2026-05-02T20:43:05.458Z","Mozilla/5.0 (iPhone; CPU iPhone OS 18_7 like Mac OS X) AppleWebKit/605.1.15 (KHTML, like Gecko) Mobile/15E148","358","632","240","","null","<div style=""font-size:60px;"">+</div>","null","fixation","","","","","","","","","","","",""
"html-button-response","25","31729","0.0-2.0-1.11","1088","26","pre","9","afternoon","2026-04-24","2026-05-07","2026-05-02T20:43:05.458Z","Mozilla/5.0 (iPhone; CPU iPhone OS 18_7 like Mac OS X) AppleWebKit/605.1.15 (KHTML, like Gecko) Mobile/15E148","358","632","240","","1294","<div class=""prompt"" style=""font-size:24px; margin-bottom:20px;"">Which word describes you more?</div>","1","pairing","12","insecure","knowledgeable","PosNeg","35","87","negative","positive","52","knowledgeable","right","true"
"html-keyboard-response","26","32532","0.0-2.0-0.12","1088","26","pre","9","afternoon","2026-04-24","2026-05-07","2026-05-02T20:43:05.458Z","Mozilla/5.0 (iPhone; CPU iPhone OS 18_7 like Mac OS X) AppleWebKit/605.1.15 (KHTML, like Gecko) Mobile/15E148","358","632","240","","null","<div style=""font-size:60px;"">+</div>","null","fixation","","","","","","","","","","","",""
"html-button-response","27","34864","0.0-2.0-1.12","1088","26","pre","9","afternoon","2026-04-24","2026-05-07","2026-05-02T20:43:05.458Z","Mozilla/5.0 (iPhone; CPU iPhone OS 18_7 like Mac OS X) AppleWebKit/605.1.15 (KHTML, like Gecko) Mobile/15E148","358","632","240","","2324","<div class=""prompt"" style=""font-size:24px; margin-bottom:20px;"">Which word describes you more?</div>","1","pairing","13","unfaithful","champion","PosNeg","0","15","negative","positive","15","champion","right","true"
"html-keyboard-response","28","35667","0.0-2.0-0.13","1088","26","pre","9","afternoon","2026-04-24","2026-05-07","2026-05-02T20:43:05.458Z","Mozilla/5.0 (iPhone; CPU iPhone OS 18_7 like Mac OS X) AppleWebKit/605.1.15 (KHTML, like Gecko) Mobile/15E148","358","632","240","","null","<div style=""font-size:60px;"">+</div>","null","fixation","","","","","","","","","","","",""
"html-button-response","29","36631","0.0-2.0-1.13","1088","26","pre","9","afternoon","2026-04-24","2026-05-07","2026-05-02T20:43:05.458Z","Mozilla/5.0 (iPhone; CPU iPhone OS 18_7 like Mac OS X) AppleWebKit/605.1.15 (KHTML, like Gecko) Mobile/15E148","358","632","240","","961","<div class=""prompt"" style=""font-size:24px; margin-bottom:20px;"">Which word describes you more?</div>","0","pairing","14","hesitant","witty","PosNeg","84","65","negative","positive","19","hesitant","left","true"
"html-keyboard-response","30","37434","0.0-2.0-0.14","1088","26","pre","9","afternoon","2026-04-24","2026-05-07","2026-05-02T20:43:05.458Z","Mozilla/5.0 (iPhone; CPU iPhone OS 18_7 like Mac OS X) AppleWebKit/605.1.15 (KHTML, like Gecko) Mobile/15E148","358","632","240","","null","<div style=""font-size:60px;"">+</div>","null","fixation","","","","","","","","","","","",""
"html-button-response","31","39379","0.0-2.0-1.14","1088","26","pre","9","afternoon","2026-04-24","2026-05-07","2026-05-02T20:43:05.458Z","Mozilla/5.0 (iPhone; CPU iPhone OS 18_7 like Mac OS X) AppleWebKit/605.1.15 (KHTML, like Gecko) Mobile/15E148","358","632","240","","1942","<div class=""prompt"" style=""font-size:24px; margin-bottom:20px;"">Which word describes you more?</div>","0","pairing","15","easygoing","hesitant","PosNeg","48","84","positive","negative","36","easygoing","left","true"
"html-keyboard-response","32","40181","0.0-2.0-0.15","1088","26","pre","9","afternoon","2026-04-24","2026-05-07","2026-05-02T20:43:05.458Z","Mozilla/5.0 (iPhone; CPU iPhone OS 18_7 like Mac OS X) AppleWebKit/605.1.15 (KHTML, like Gecko) Mobile/15E148","358","632","240","","null","<div style=""font-size:60px;"">+</div>","null","fixation","","","","","","","","","","","",""
"html-button-response","33","41978","0.0-2.0-1.15","1088","26","pre","9","afternoon","2026-04-24","2026-05-07","2026-05-02T20:43:05.458Z","Mozilla/5.0 (iPhone; CPU iPhone OS 18_7 like Mac OS X) AppleWebKit/605.1.15 (KHTML, like Gecko) Mobile/15E148","358","632","240","","1794","<div class=""prompt"" style=""font-size:24px; margin-bottom:20px;"">Which word describes you more?</div>","1","pairing","16","dull","selfish","NegNeg","8","30","negative","negative","22","selfish","right","true"
"html-keyboard-response","34","42780","0.0-2.0-0.16","1088","26","pre","9","afternoon","2026-04-24","2026-05-07","2026-05-02T20:43:05.458Z","Mozilla/5.0 (iPhone; CPU iPhone OS 18_7 like Mac OS X) AppleWebKit/605.1.15 (KHTML, like Gecko) Mobile/15E148","358","632","240","","null","<div style=""font-size:60px;"">+</div>","null","fixation","","","","","","","","","","","",""
"html-button-response","35","43919","0.0-2.0-1.16","1088","26","pre","9","afternoon","2026-04-24","2026-05-07","2026-05-02T20:43:05.458Z","Mozilla/5.0 (iPhone; CPU iPhone OS 18_7 like Mac OS X) AppleWebKit/605.1.15 (KHTML, like Gecko) Mobile/15E148","358","632","240","","1136","<div class=""prompt"" style=""font-size:24px; margin-bottom:20px;"">Which word describes you more?</div>","1","pairing","17","degenerate","shameful","NegNeg","0","59","negative","negative","59","shameful","right","true"
"html-keyboard-response","36","44722","0.0-2.0-0.17","1088","26","pre","9","afternoon","2026-04-24","2026-05-07","2026-05-02T20:43:05.458Z","Mozilla/5.0 (iPhone; CPU iPhone OS 18_7 like Mac OS X) AppleWebKit/605.1.15 (KHTML, like Gecko) Mobile/15E148","358","632","240","","null","<div style=""font-size:60px;"">+</div>","null","fixation","","","","","","","","","","","",""
"html-button-response","37","45583","0.0-2.0-1.17","1088","26","pre","9","afternoon","2026-04-24","2026-05-07","2026-05-02T20:43:05.458Z","Mozilla/5.0 (iPhone; CPU iPhone OS 18_7 like Mac OS X) AppleWebKit/605.1.15 (KHTML, like Gecko) Mobile/15E148","358","632","240","","859","<div class=""prompt"" style=""font-size:24px; margin-bottom:20px;"">Which word describes you more?</div>","0","pairing","18","hopeful","expert","PosPos","50","7","positive","positive","43","hopeful","left","true"
"html-keyboard-response","38","46386","0.0-2.0-0.18","1088","26","pre","9","afternoon","2026-04-24","2026-05-07","2026-05-02T20:43:05.458Z","Mozilla/5.0 (iPhone; CPU iPhone OS 18_7 like Mac OS X) AppleWebKit/605.1.15 (KHTML, like Gecko) Mobile/15E148","358","632","240","","null","<div style=""font-size:60px;"">+</div>","null","fixation","","","","","","","","","","","",""
"html-button-response","39","47199","0.0-2.0-1.18","1088","26","pre","9","afternoon","2026-04-24","2026-05-07","2026-05-02T20:43:05.458Z","Mozilla/5.0 (iPhone; CPU iPhone OS 18_7 like Mac OS X) AppleWebKit/605.1.15 (KHTML, like Gecko) Mobile/15E148","358","632","240","","811","<div class=""prompt"" style=""font-size:24px; margin-bottom:20px;"">Which word describes you more?</div>","0","pairing","19","sensible","outcast","PosNeg","73","60","positive","negative","13","sensible","left","true"
"html-keyboard-response","40","48001","0.0-2.0-0.19","1088","26","pre","9","afternoon","2026-04-24","2026-05-07","2026-05-02T20:43:05.458Z","Mozilla/5.0 (iPhone; CPU iPhone OS 18_7 like Mac OS X) AppleWebKit/605.1.15 (KHTML, like Gecko) Mobile/15E148","358","632","240","","null","<div style=""font-size:60px;"">+</div>","null","fixation","","","","","","","","","","","",""
"html-button-response","41","48850","0.0-2.0-1.19","1088","26","pre","9","afternoon","2026-04-24","2026-05-07","2026-05-02T20:43:05.458Z","Mozilla/5.0 (iPhone; CPU iPhone OS 18_7 like Mac OS X) AppleWebKit/605.1.15 (KHTML, like Gecko) Mobile/15E148","358","632","240","","847","<div class=""prompt"" style=""font-size:24px; margin-bottom:20px;"">Which word describes you more?</div>","0","pairing","20","hopeful","reliable","PosPos","50","90","positive","positive","40","hopeful","left","true"
"html-keyboard-response","42","49652","0.0-2.0-0.20","1088","26","pre","9","afternoon","2026-04-24","2026-05-07","2026-05-02T20:43:05.458Z","Mozilla/5.0 (iPhone; CPU iPhone OS 18_7 like Mac OS X) AppleWebKit/605.1.15 (KHTML, like Gecko) Mobile/15E148","358","632","240","","null","<div style=""font-size:60px;"">+</div>","null","fixation","","","","","","","","","","","",""
"html-button-response","43","50393","0.0-2.0-1.20","1088","26","pre","9","afternoon","2026-04-24","2026-05-07","2026-05-02T20:43:05.458Z","Mozilla/5.0 (iPhone; CPU iPhone OS 18_7 like Mac OS X) AppleWebKit/605.1.15 (KHTML, like Gecko) Mobile/15E148","358","632","240","","739","<div class=""prompt"" style=""font-size:24px; margin-bottom:20px;"">Which word describes you more?</div>","0","pairing","21","authentic","expert","PosPos","99","7","positive","positive","92","authentic","left","true"
"html-keyboard-response","44","51196","0.0-2.0-0.21","1088","26","pre","9","afternoon","2026-04-24","2026-05-07","2026-05-02T20:43:05.458Z","Mozilla/5.0 (iPhone; CPU iPhone OS 18_7 like Mac OS X) AppleWebKit/605.1.15 (KHTML, like Gecko) Mobile/15E148","358","632","240","","null","<div style=""font-size:60px;"">+</div>","null","fixation","","","","","","","","","","","",""
"html-button-response","45","52800","0.0-2.0-1.21","1088","26","pre","9","afternoon","2026-04-24","2026-05-07","2026-05-02T20:43:05.458Z","Mozilla/5.0 (iPhone; CPU iPhone OS 18_7 like Mac OS X) AppleWebKit/605.1.15 (KHTML, like Gecko) Mobile/15E148","358","632","240","","1601","<div class=""prompt"" style=""font-size:24px; margin-bottom:20px;"">Which word describes you more?</div>","0","pairing","22","honest","seeker","PosPos","82","95","positive","positive","13","honest","left","true"
"html-keyboard-response","46","53602","0.0-2.0-0.22","1088","26","pre","9","afternoon","2026-04-24","2026-05-07","2026-05-02T20:43:05.458Z","Mozilla/5.0 (iPhone; CPU iPhone OS 18_7 like Mac OS X) AppleWebKit/605.1.15 (KHTML, like Gecko) Mobile/15E148","358","632","240","","null","<div style=""font-size:60px;"">+</div>","null","fixation","","","","","","","","","","","",""
"html-button-response","47","54750","0.0-2.0-1.22","1088","26","pre","9","afternoon","2026-04-24","2026-05-07","2026-05-02T20:43:05.458Z","Mozilla/5.0 (iPhone; CPU iPhone OS 18_7 like Mac OS X) AppleWebKit/605.1.15 (KHTML, like Gecko) Mobile/15E148","358","632","240","","1146","<div class=""prompt"" style=""font-size:24px; margin-bottom:20px;"">Which word describes you more?</div>","1","pairing","23","expert","resourceful","PosPos","7","96","positive","positive","89","resourceful","right","true"
"html-keyboard-response","48","55552","0.0-2.0-0.23","1088","26","pre","9","afternoon","2026-04-24","2026-05-07","2026-05-02T20:43:05.458Z","Mozilla/5.0 (iPhone; CPU iPhone OS 18_7 like Mac OS X) AppleWebKit/605.1.15 (KHTML, like Gecko) Mobile/15E148","358","632","240","","null","<div style=""font-size:60px;"">+</div>","null","fixation","","","","","","","","","","","",""
"html-button-response","49","57617","0.0-2.0-1.23","1088","26","pre","9","afternoon","2026-04-24","2026-05-07","2026-05-02T20:43:05.458Z","Mozilla/5.0 (iPhone; CPU iPhone OS 18_7 like Mac OS X) AppleWebKit/605.1.15 (KHTML, like Gecko) Mobile/15E148","358","632","240","","2063","<div class=""prompt"" style=""font-size:24px; margin-bottom:20px;"">Which word describes you more?</div>","0","pairing","24","gloomy","disgusting","NegNeg","49","0","negative","negative","49","gloomy","left","true"
"instructions","50","58450","0.0-3.0","1088","26","pre","9","afternoon","2026-04-24","2026-05-07","2026-05-02T20:43:05.458Z","Mozilla/5.0 (iPhone; CPU iPhone OS 18_7 like Mac OS X) AppleWebKit/605.1.15 (KHTML, like Gecko) Mobile/15E148","358","632","240","[{""page_index"":0,""viewing_time"":829}]","830","","","","","","","","","","","","","","",""
