"trial_type","trial_index","time_elapsed","internal_node_id","PUNS_ID","session_number","session_phase","session_day","session_slot","ema_start_date","ema_post_start_date","experiment_start","browser","screen_width","screen_height","timezone_offset","view_history","rt","stimulus","response","which_experiment_phase","trial_number","left_word","right_word","valence","left_base_rating","right_base_rating","left_valence","right_valence","abs_diff","participant_response","chosen_side","valid_response"
"pavlovia","0","1810","0.0-0.0","1032","11","pre","4","afternoon","2026-04-15","2026-04-27","2026-04-18T22:50:16.961Z","Mozilla/5.0 (Linux; Android 16; Pixel 9 Pro Build/CP1A.260405.005; wv) AppleWebKit/537.36 (KHTML, like Gecko) Version/4.0 Chrome/146.0.7680.177 Mobile Safari/537.36","394","719","420","","","","","","","","","","","","","","","","",""
"instructions","1","4864","0.0-1.0","1032","11","pre","4","afternoon","2026-04-15","2026-04-27","2026-04-18T22:50:16.961Z","Mozilla/5.0 (Linux; Android 16; Pixel 9 Pro Build/CP1A.260405.005; wv) AppleWebKit/537.36 (KHTML, like Gecko) Version/4.0 Chrome/146.0.7680.177 Mobile Safari/537.36","394","719","420","[{""page_index"":0,""viewing_time"":893},{""page_index"":1,""viewing_time"":530},{""page_index"":2,""viewing_time"":567},{""page_index"":3,""viewing_time"":1058}]","3050","","","","","","","","","","","","","","",""
"html-keyboard-response","2","5674","0.0-2.0-0.0","1032","11","pre","4","afternoon","2026-04-15","2026-04-27","2026-04-18T22:50:16.961Z","Mozilla/5.0 (Linux; Android 16; Pixel 9 Pro Build/CP1A.260405.005; wv) AppleWebKit/537.36 (KHTML, like Gecko) Version/4.0 Chrome/146.0.7680.177 Mobile Safari/537.36","394","719","420","","null","<div style=""font-size:60px;"">+</div>","null","fixation","","","","","","","","","","","",""
"html-button-response","3","8844","0.0-2.0-1.0","1032","11","pre","4","afternoon","2026-04-15","2026-04-27","2026-04-18T22:50:16.961Z","Mozilla/5.0 (Linux; Android 16; Pixel 9 Pro Build/CP1A.260405.005; wv) AppleWebKit/537.36 (KHTML, like Gecko) Version/4.0 Chrome/146.0.7680.177 Mobile Safari/537.36","394","719","420","","3158","<div class=""prompt"" style=""font-size:24px; margin-bottom:20px;"">Which word describes you more?</div>","0","pairing","1","irritating","degenerate","NegNeg","5","49","negative","negative","44","irritating","left","true"
"html-keyboard-response","4","9651","0.0-2.0-0.1","1032","11","pre","4","afternoon","2026-04-15","2026-04-27","2026-04-18T22:50:16.961Z","Mozilla/5.0 (Linux; Android 16; Pixel 9 Pro Build/CP1A.260405.005; wv) AppleWebKit/537.36 (KHTML, like Gecko) Version/4.0 Chrome/146.0.7680.177 Mobile Safari/537.36","394","719","420","","null","<div style=""font-size:60px;"">+</div>","null","fixation","","","","","","","","","","","",""
"html-button-response","5","12794","0.0-2.0-1.1","1032","11","pre","4","afternoon","2026-04-15","2026-04-27","2026-04-18T22:50:16.961Z","Mozilla/5.0 (Linux; Android 16; Pixel 9 Pro Build/CP1A.260405.005; wv) AppleWebKit/537.36 (KHTML, like Gecko) Version/4.0 Chrome/146.0.7680.177 Mobile Safari/537.36","394","719","420","","3133","<div class=""prompt"" style=""font-size:24px; margin-bottom:20px;"">Which word describes you more?</div>","1","pairing","2","unlucky","spontaneous","PosNeg","60","18","negative","positive","42","spontaneous","right","true"
"html-keyboard-response","6","13599","0.0-2.0-0.2","1032","11","pre","4","afternoon","2026-04-15","2026-04-27","2026-04-18T22:50:16.961Z","Mozilla/5.0 (Linux; Android 16; Pixel 9 Pro Build/CP1A.260405.005; wv) AppleWebKit/537.36 (KHTML, like Gecko) Version/4.0 Chrome/146.0.7680.177 Mobile Safari/537.36","394","719","420","","null","<div style=""font-size:60px;"">+</div>","null","fixation","","","","","","","","","","","",""
"html-button-response","7","14906","0.0-2.0-1.2","1032","11","pre","4","afternoon","2026-04-15","2026-04-27","2026-04-18T22:50:16.961Z","Mozilla/5.0 (Linux; Android 16; Pixel 9 Pro Build/CP1A.260405.005; wv) AppleWebKit/537.36 (KHTML, like Gecko) Version/4.0 Chrome/146.0.7680.177 Mobile Safari/537.36","394","719","420","","1299","<div class=""prompt"" style=""font-size:24px; margin-bottom:20px;"">Which word describes you more?</div>","0","pairing","3","flawless","awkward","PosNeg","7","60","positive","negative","53","flawless","left","true"
"html-keyboard-response","8","15713","0.0-2.0-0.3","1032","11","pre","4","afternoon","2026-04-15","2026-04-27","2026-04-18T22:50:16.961Z","Mozilla/5.0 (Linux; Android 16; Pixel 9 Pro Build/CP1A.260405.005; wv) AppleWebKit/537.36 (KHTML, like Gecko) Version/4.0 Chrome/146.0.7680.177 Mobile Safari/537.36","394","719","420","","null","<div style=""font-size:60px;"">+</div>","null","fixation","","","","","","","","","","","",""
"html-button-response","9","18367","0.0-2.0-1.3","1032","11","pre","4","afternoon","2026-04-15","2026-04-27","2026-04-18T22:50:16.961Z","Mozilla/5.0 (Linux; Android 16; Pixel 9 Pro Build/CP1A.260405.005; wv) AppleWebKit/537.36 (KHTML, like Gecko) Version/4.0 Chrome/146.0.7680.177 Mobile Safari/537.36","394","719","420","","2647","<div class=""prompt"" style=""font-size:24px; margin-bottom:20px;"">Which word describes you more?</div>","0","pairing","4","arrogant","immoral","NegNeg","40","4","negative","negative","36","arrogant","left","true"
"html-keyboard-response","10","19172","0.0-2.0-0.4","1032","11","pre","4","afternoon","2026-04-15","2026-04-27","2026-04-18T22:50:16.961Z","Mozilla/5.0 (Linux; Android 16; Pixel 9 Pro Build/CP1A.260405.005; wv) AppleWebKit/537.36 (KHTML, like Gecko) Version/4.0 Chrome/146.0.7680.177 Mobile Safari/537.36","394","719","420","","null","<div style=""font-size:60px;"">+</div>","null","fixation","","","","","","","","","","","",""
"html-button-response","11","20733","0.0-2.0-1.4","1032","11","pre","4","afternoon","2026-04-15","2026-04-27","2026-04-18T22:50:16.961Z","Mozilla/5.0 (Linux; Android 16; Pixel 9 Pro Build/CP1A.260405.005; wv) AppleWebKit/537.36 (KHTML, like Gecko) Version/4.0 Chrome/146.0.7680.177 Mobile Safari/537.36","394","719","420","","1551","<div class=""prompt"" style=""font-size:24px; margin-bottom:20px;"">Which word describes you more?</div>","0","pairing","5","peaceful","liar","PosNeg","69","14","positive","negative","55","peaceful","left","true"
"html-keyboard-response","12","21538","0.0-2.0-0.5","1032","11","pre","4","afternoon","2026-04-15","2026-04-27","2026-04-18T22:50:16.961Z","Mozilla/5.0 (Linux; Android 16; Pixel 9 Pro Build/CP1A.260405.005; wv) AppleWebKit/537.36 (KHTML, like Gecko) Version/4.0 Chrome/146.0.7680.177 Mobile Safari/537.36","394","719","420","","null","<div style=""font-size:60px;"">+</div>","null","fixation","","","","","","","","","","","",""
"html-button-response","13","23257","0.0-2.0-1.5","1032","11","pre","4","afternoon","2026-04-15","2026-04-27","2026-04-18T22:50:16.961Z","Mozilla/5.0 (Linux; Android 16; Pixel 9 Pro Build/CP1A.260405.005; wv) AppleWebKit/537.36 (KHTML, like Gecko) Version/4.0 Chrome/146.0.7680.177 Mobile Safari/537.36","394","719","420","","1712","<div class=""prompt"" style=""font-size:24px; margin-bottom:20px;"">Which word describes you more?</div>","1","pairing","6","terrible","humorous","PosNeg","1","51","negative","positive","50","humorous","right","true"
"html-keyboard-response","14","24060","0.0-2.0-0.6","1032","11","pre","4","afternoon","2026-04-15","2026-04-27","2026-04-18T22:50:16.961Z","Mozilla/5.0 (Linux; Android 16; Pixel 9 Pro Build/CP1A.260405.005; wv) AppleWebKit/537.36 (KHTML, like Gecko) Version/4.0 Chrome/146.0.7680.177 Mobile Safari/537.36","394","719","420","","null","<div style=""font-size:60px;"">+</div>","null","fixation","","","","","","","","","","","",""
"html-button-response","15","25311","0.0-2.0-1.6","1032","11","pre","4","afternoon","2026-04-15","2026-04-27","2026-04-18T22:50:16.961Z","Mozilla/5.0 (Linux; Android 16; Pixel 9 Pro Build/CP1A.260405.005; wv) AppleWebKit/537.36 (KHTML, like Gecko) Version/4.0 Chrome/146.0.7680.177 Mobile Safari/537.36","394","719","420","","1247","<div class=""prompt"" style=""font-size:24px; margin-bottom:20px;"">Which word describes you more?</div>","1","pairing","7","creep","companion","PosNeg","8","88","negative","positive","80","companion","right","true"
"html-keyboard-response","16","26115","0.0-2.0-0.7","1032","11","pre","4","afternoon","2026-04-15","2026-04-27","2026-04-18T22:50:16.961Z","Mozilla/5.0 (Linux; Android 16; Pixel 9 Pro Build/CP1A.260405.005; wv) AppleWebKit/537.36 (KHTML, like Gecko) Version/4.0 Chrome/146.0.7680.177 Mobile Safari/537.36","394","719","420","","null","<div style=""font-size:60px;"">+</div>","null","fixation","","","","","","","","","","","",""
"html-button-response","17","27124","0.0-2.0-1.7","1032","11","pre","4","afternoon","2026-04-15","2026-04-27","2026-04-18T22:50:16.961Z","Mozilla/5.0 (Linux; Android 16; Pixel 9 Pro Build/CP1A.260405.005; wv) AppleWebKit/537.36 (KHTML, like Gecko) Version/4.0 Chrome/146.0.7680.177 Mobile Safari/537.36","394","719","420","","1004","<div class=""prompt"" style=""font-size:24px; margin-bottom:20px;"">Which word describes you more?</div>","1","pairing","8","slob","excited","PosNeg","0","27","negative","positive","27","excited","right","true"
"html-keyboard-response","18","27928","0.0-2.0-0.8","1032","11","pre","4","afternoon","2026-04-15","2026-04-27","2026-04-18T22:50:16.961Z","Mozilla/5.0 (Linux; Android 16; Pixel 9 Pro Build/CP1A.260405.005; wv) AppleWebKit/537.36 (KHTML, like Gecko) Version/4.0 Chrome/146.0.7680.177 Mobile Safari/537.36","394","719","420","","null","<div style=""font-size:60px;"">+</div>","null","fixation","","","","","","","","","","","",""
"html-button-response","19","29550","0.0-2.0-1.8","1032","11","pre","4","afternoon","2026-04-15","2026-04-27","2026-04-18T22:50:16.961Z","Mozilla/5.0 (Linux; Android 16; Pixel 9 Pro Build/CP1A.260405.005; wv) AppleWebKit/537.36 (KHTML, like Gecko) Version/4.0 Chrome/146.0.7680.177 Mobile Safari/537.36","394","719","420","","1615","<div class=""prompt"" style=""font-size:24px; margin-bottom:20px;"">Which word describes you more?</div>","0","pairing","9","legendary","adorable","PosPos","77","78","positive","positive","1","legendary","left","true"
"html-keyboard-response","20","30354","0.0-2.0-0.9","1032","11","pre","4","afternoon","2026-04-15","2026-04-27","2026-04-18T22:50:16.961Z","Mozilla/5.0 (Linux; Android 16; Pixel 9 Pro Build/CP1A.260405.005; wv) AppleWebKit/537.36 (KHTML, like Gecko) Version/4.0 Chrome/146.0.7680.177 Mobile Safari/537.36","394","719","420","","null","<div style=""font-size:60px;"">+</div>","null","fixation","","","","","","","","","","","",""
"html-button-response","21","33408","0.0-2.0-1.9","1032","11","pre","4","afternoon","2026-04-15","2026-04-27","2026-04-18T22:50:16.961Z","Mozilla/5.0 (Linux; Android 16; Pixel 9 Pro Build/CP1A.260405.005; wv) AppleWebKit/537.36 (KHTML, like Gecko) Version/4.0 Chrome/146.0.7680.177 Mobile Safari/537.36","394","719","420","","3047","<div class=""prompt"" style=""font-size:24px; margin-bottom:20px;"">Which word describes you more?</div>","1","pairing","10","easygoing","hesitant","PosNeg","43","28","positive","negative","15","hesitant","right","true"
"html-keyboard-response","22","34212","0.0-2.0-0.10","1032","11","pre","4","afternoon","2026-04-15","2026-04-27","2026-04-18T22:50:16.961Z","Mozilla/5.0 (Linux; Android 16; Pixel 9 Pro Build/CP1A.260405.005; wv) AppleWebKit/537.36 (KHTML, like Gecko) Version/4.0 Chrome/146.0.7680.177 Mobile Safari/537.36","394","719","420","","null","<div style=""font-size:60px;"">+</div>","null","fixation","","","","","","","","","","","",""
"html-button-response","23","38578","0.0-2.0-1.10","1032","11","pre","4","afternoon","2026-04-15","2026-04-27","2026-04-18T22:50:16.961Z","Mozilla/5.0 (Linux; Android 16; Pixel 9 Pro Build/CP1A.260405.005; wv) AppleWebKit/537.36 (KHTML, like Gecko) Version/4.0 Chrome/146.0.7680.177 Mobile Safari/537.36","394","719","420","","4358","<div class=""prompt"" style=""font-size:24px; margin-bottom:20px;"">Which word describes you more?</div>","1","pairing","11","phony","headache","NegNeg","0","9","negative","negative","9","headache","right","true"
"html-keyboard-response","24","39381","0.0-2.0-0.11","1032","11","pre","4","afternoon","2026-04-15","2026-04-27","2026-04-18T22:50:16.961Z","Mozilla/5.0 (Linux; Android 16; Pixel 9 Pro Build/CP1A.260405.005; wv) AppleWebKit/537.36 (KHTML, like Gecko) Version/4.0 Chrome/146.0.7680.177 Mobile Safari/537.36","394","719","420","","null","<div style=""font-size:60px;"">+</div>","null","fixation","","","","","","","","","","","",""
"html-button-response","25","42677","0.0-2.0-1.11","1032","11","pre","4","afternoon","2026-04-15","2026-04-27","2026-04-18T22:50:16.961Z","Mozilla/5.0 (Linux; Android 16; Pixel 9 Pro Build/CP1A.260405.005; wv) AppleWebKit/537.36 (KHTML, like Gecko) Version/4.0 Chrome/146.0.7680.177 Mobile Safari/537.36","394","719","420","","3289","<div class=""prompt"" style=""font-size:24px; margin-bottom:20px;"">Which word describes you more?</div>","0","pairing","12","hater","sadistic","NegNeg","10","14","negative","negative","4","hater","left","true"
"html-keyboard-response","26","43481","0.0-2.0-0.12","1032","11","pre","4","afternoon","2026-04-15","2026-04-27","2026-04-18T22:50:16.961Z","Mozilla/5.0 (Linux; Android 16; Pixel 9 Pro Build/CP1A.260405.005; wv) AppleWebKit/537.36 (KHTML, like Gecko) Version/4.0 Chrome/146.0.7680.177 Mobile Safari/537.36","394","719","420","","null","<div style=""font-size:60px;"">+</div>","null","fixation","","","","","","","","","","","",""
"html-button-response","27","45696","0.0-2.0-1.12","1032","11","pre","4","afternoon","2026-04-15","2026-04-27","2026-04-18T22:50:16.961Z","Mozilla/5.0 (Linux; Android 16; Pixel 9 Pro Build/CP1A.260405.005; wv) AppleWebKit/537.36 (KHTML, like Gecko) Version/4.0 Chrome/146.0.7680.177 Mobile Safari/537.36","394","719","420","","2209","<div class=""prompt"" style=""font-size:24px; margin-bottom:20px;"">Which word describes you more?</div>","1","pairing","13","gentle","garbage","PosNeg","35","0","positive","negative","35","garbage","right","true"
"html-keyboard-response","28","46499","0.0-2.0-0.13","1032","11","pre","4","afternoon","2026-04-15","2026-04-27","2026-04-18T22:50:16.961Z","Mozilla/5.0 (Linux; Android 16; Pixel 9 Pro Build/CP1A.260405.005; wv) AppleWebKit/537.36 (KHTML, like Gecko) Version/4.0 Chrome/146.0.7680.177 Mobile Safari/537.36","394","719","420","","null","<div style=""font-size:60px;"">+</div>","null","fixation","","","","","","","","","","","",""
"html-button-response","29","50244","0.0-2.0-1.13","1032","11","pre","4","afternoon","2026-04-15","2026-04-27","2026-04-18T22:50:16.961Z","Mozilla/5.0 (Linux; Android 16; Pixel 9 Pro Build/CP1A.260405.005; wv) AppleWebKit/537.36 (KHTML, like Gecko) Version/4.0 Chrome/146.0.7680.177 Mobile Safari/537.36","394","719","420","","3739","<div class=""prompt"" style=""font-size:24px; margin-bottom:20px;"">Which word describes you more?</div>","0","pairing","14","visionary","delight","PosPos","98","73","positive","positive","25","visionary","left","true"
"html-keyboard-response","30","51048","0.0-2.0-0.14","1032","11","pre","4","afternoon","2026-04-15","2026-04-27","2026-04-18T22:50:16.961Z","Mozilla/5.0 (Linux; Android 16; Pixel 9 Pro Build/CP1A.260405.005; wv) AppleWebKit/537.36 (KHTML, like Gecko) Version/4.0 Chrome/146.0.7680.177 Mobile Safari/537.36","394","719","420","","null","<div style=""font-size:60px;"">+</div>","null","fixation","","","","","","","","","","","",""
"html-button-response","31","55772","0.0-2.0-1.14","1032","11","pre","4","afternoon","2026-04-15","2026-04-27","2026-04-18T22:50:16.961Z","Mozilla/5.0 (Linux; Android 16; Pixel 9 Pro Build/CP1A.260405.005; wv) AppleWebKit/537.36 (KHTML, like Gecko) Version/4.0 Chrome/146.0.7680.177 Mobile Safari/537.36","394","719","420","","4720","<div class=""prompt"" style=""font-size:24px; margin-bottom:20px;"">Which word describes you more?</div>","1","pairing","15","unfaithful","slob","NegNeg","19","0","negative","negative","19","slob","right","true"
"html-keyboard-response","32","56575","0.0-2.0-0.15","1032","11","pre","4","afternoon","2026-04-15","2026-04-27","2026-04-18T22:50:16.961Z","Mozilla/5.0 (Linux; Android 16; Pixel 9 Pro Build/CP1A.260405.005; wv) AppleWebKit/537.36 (KHTML, like Gecko) Version/4.0 Chrome/146.0.7680.177 Mobile Safari/537.36","394","719","420","","null","<div style=""font-size:60px;"">+</div>","null","fixation","","","","","","","","","","","",""
"html-button-response","33","58359","0.0-2.0-1.15","1032","11","pre","4","afternoon","2026-04-15","2026-04-27","2026-04-18T22:50:16.961Z","Mozilla/5.0 (Linux; Android 16; Pixel 9 Pro Build/CP1A.260405.005; wv) AppleWebKit/537.36 (KHTML, like Gecko) Version/4.0 Chrome/146.0.7680.177 Mobile Safari/537.36","394","719","420","","1781","<div class=""prompt"" style=""font-size:24px; margin-bottom:20px;"">Which word describes you more?</div>","1","pairing","16","stingy","selfish","NegNeg","0","21","negative","negative","21","selfish","right","true"
"html-keyboard-response","34","59161","0.0-2.0-0.16","1032","11","pre","4","afternoon","2026-04-15","2026-04-27","2026-04-18T22:50:16.961Z","Mozilla/5.0 (Linux; Android 16; Pixel 9 Pro Build/CP1A.260405.005; wv) AppleWebKit/537.36 (KHTML, like Gecko) Version/4.0 Chrome/146.0.7680.177 Mobile Safari/537.36","394","719","420","","null","<div style=""font-size:60px;"">+</div>","null","fixation","","","","","","","","","","","",""
"html-button-response","35","60966","0.0-2.0-1.16","1032","11","pre","4","afternoon","2026-04-15","2026-04-27","2026-04-18T22:50:16.961Z","Mozilla/5.0 (Linux; Android 16; Pixel 9 Pro Build/CP1A.260405.005; wv) AppleWebKit/537.36 (KHTML, like Gecko) Version/4.0 Chrome/146.0.7680.177 Mobile Safari/537.36","394","719","420","","1799","<div class=""prompt"" style=""font-size:24px; margin-bottom:20px;"">Which word describes you more?</div>","1","pairing","17","degenerate","cooperative","PosNeg","49","42","negative","positive","7","cooperative","right","true"
"html-keyboard-response","36","61772","0.0-2.0-0.17","1032","11","pre","4","afternoon","2026-04-15","2026-04-27","2026-04-18T22:50:16.961Z","Mozilla/5.0 (Linux; Android 16; Pixel 9 Pro Build/CP1A.260405.005; wv) AppleWebKit/537.36 (KHTML, like Gecko) Version/4.0 Chrome/146.0.7680.177 Mobile Safari/537.36","394","719","420","","null","<div style=""font-size:60px;"">+</div>","null","fixation","","","","","","","","","","","",""
"html-button-response","37","63648","0.0-2.0-1.17","1032","11","pre","4","afternoon","2026-04-15","2026-04-27","2026-04-18T22:50:16.961Z","Mozilla/5.0 (Linux; Android 16; Pixel 9 Pro Build/CP1A.260405.005; wv) AppleWebKit/537.36 (KHTML, like Gecko) Version/4.0 Chrome/146.0.7680.177 Mobile Safari/537.36","394","719","420","","1869","<div class=""prompt"" style=""font-size:24px; margin-bottom:20px;"">Which word describes you more?</div>","1","pairing","18","charming","credible","PosPos","65","100","positive","positive","35","credible","right","true"
"html-keyboard-response","38","64452","0.0-2.0-0.18","1032","11","pre","4","afternoon","2026-04-15","2026-04-27","2026-04-18T22:50:16.961Z","Mozilla/5.0 (Linux; Android 16; Pixel 9 Pro Build/CP1A.260405.005; wv) AppleWebKit/537.36 (KHTML, like Gecko) Version/4.0 Chrome/146.0.7680.177 Mobile Safari/537.36","394","719","420","","null","<div style=""font-size:60px;"">+</div>","null","fixation","","","","","","","","","","","",""
"html-button-response","39","65703","0.0-2.0-1.18","1032","11","pre","4","afternoon","2026-04-15","2026-04-27","2026-04-18T22:50:16.961Z","Mozilla/5.0 (Linux; Android 16; Pixel 9 Pro Build/CP1A.260405.005; wv) AppleWebKit/537.36 (KHTML, like Gecko) Version/4.0 Chrome/146.0.7680.177 Mobile Safari/537.36","394","719","420","","1244","<div class=""prompt"" style=""font-size:24px; margin-bottom:20px;"">Which word describes you more?</div>","0","pairing","19","thoughtful","energetic","PosPos","100","23","positive","positive","77","thoughtful","left","true"
"html-keyboard-response","40","66510","0.0-2.0-0.19","1032","11","pre","4","afternoon","2026-04-15","2026-04-27","2026-04-18T22:50:16.961Z","Mozilla/5.0 (Linux; Android 16; Pixel 9 Pro Build/CP1A.260405.005; wv) AppleWebKit/537.36 (KHTML, like Gecko) Version/4.0 Chrome/146.0.7680.177 Mobile Safari/537.36","394","719","420","","null","<div style=""font-size:60px;"">+</div>","null","fixation","","","","","","","","","","","",""
"html-button-response","41","68419","0.0-2.0-1.19","1032","11","pre","4","afternoon","2026-04-15","2026-04-27","2026-04-18T22:50:16.961Z","Mozilla/5.0 (Linux; Android 16; Pixel 9 Pro Build/CP1A.260405.005; wv) AppleWebKit/537.36 (KHTML, like Gecko) Version/4.0 Chrome/146.0.7680.177 Mobile Safari/537.36","394","719","420","","1902","<div class=""prompt"" style=""font-size:24px; margin-bottom:20px;"">Which word describes you more?</div>","0","pairing","20","energetic","anxious","PosNeg","23","29","positive","negative","6","energetic","left","true"
"html-keyboard-response","42","69222","0.0-2.0-0.20","1032","11","pre","4","afternoon","2026-04-15","2026-04-27","2026-04-18T22:50:16.961Z","Mozilla/5.0 (Linux; Android 16; Pixel 9 Pro Build/CP1A.260405.005; wv) AppleWebKit/537.36 (KHTML, like Gecko) Version/4.0 Chrome/146.0.7680.177 Mobile Safari/537.36","394","719","420","","null","<div style=""font-size:60px;"">+</div>","null","fixation","","","","","","","","","","","",""
"html-button-response","43","70624","0.0-2.0-1.20","1032","11","pre","4","afternoon","2026-04-15","2026-04-27","2026-04-18T22:50:16.961Z","Mozilla/5.0 (Linux; Android 16; Pixel 9 Pro Build/CP1A.260405.005; wv) AppleWebKit/537.36 (KHTML, like Gecko) Version/4.0 Chrome/146.0.7680.177 Mobile Safari/537.36","394","719","420","","1395","<div class=""prompt"" style=""font-size:24px; margin-bottom:20px;"">Which word describes you more?</div>","0","pairing","21","valued","negligent","PosNeg","100","8","positive","negative","92","valued","left","true"
"html-keyboard-response","44","71428","0.0-2.0-0.21","1032","11","pre","4","afternoon","2026-04-15","2026-04-27","2026-04-18T22:50:16.961Z","Mozilla/5.0 (Linux; Android 16; Pixel 9 Pro Build/CP1A.260405.005; wv) AppleWebKit/537.36 (KHTML, like Gecko) Version/4.0 Chrome/146.0.7680.177 Mobile Safari/537.36","394","719","420","","null","<div style=""font-size:60px;"">+</div>","null","fixation","","","","","","","","","","","",""
"html-button-response","45","73971","0.0-2.0-1.21","1032","11","pre","4","afternoon","2026-04-15","2026-04-27","2026-04-18T22:50:16.961Z","Mozilla/5.0 (Linux; Android 16; Pixel 9 Pro Build/CP1A.260405.005; wv) AppleWebKit/537.36 (KHTML, like Gecko) Version/4.0 Chrome/146.0.7680.177 Mobile Safari/537.36","394","719","420","","2535","<div class=""prompt"" style=""font-size:24px; margin-bottom:20px;"">Which word describes you more?</div>","1","pairing","22","excited","skilled","PosPos","27","95","positive","positive","68","skilled","right","true"
"html-keyboard-response","46","74774","0.0-2.0-0.22","1032","11","pre","4","afternoon","2026-04-15","2026-04-27","2026-04-18T22:50:16.961Z","Mozilla/5.0 (Linux; Android 16; Pixel 9 Pro Build/CP1A.260405.005; wv) AppleWebKit/537.36 (KHTML, like Gecko) Version/4.0 Chrome/146.0.7680.177 Mobile Safari/537.36","394","719","420","","null","<div style=""font-size:60px;"">+</div>","null","fixation","","","","","","","","","","","",""
"html-button-response","47","76377","0.0-2.0-1.22","1032","11","pre","4","afternoon","2026-04-15","2026-04-27","2026-04-18T22:50:16.961Z","Mozilla/5.0 (Linux; Android 16; Pixel 9 Pro Build/CP1A.260405.005; wv) AppleWebKit/537.36 (KHTML, like Gecko) Version/4.0 Chrome/146.0.7680.177 Mobile Safari/537.36","394","719","420","","1597","<div class=""prompt"" style=""font-size:24px; margin-bottom:20px;"">Which word describes you more?</div>","0","pairing","23","safe","negligent","PosNeg","82","8","positive","negative","74","safe","left","true"
"html-keyboard-response","48","77180","0.0-2.0-0.23","1032","11","pre","4","afternoon","2026-04-15","2026-04-27","2026-04-18T22:50:16.961Z","Mozilla/5.0 (Linux; Android 16; Pixel 9 Pro Build/CP1A.260405.005; wv) AppleWebKit/537.36 (KHTML, like Gecko) Version/4.0 Chrome/146.0.7680.177 Mobile Safari/537.36","394","719","420","","null","<div style=""font-size:60px;"">+</div>","null","fixation","","","","","","","","","","","",""
"html-button-response","49","79227","0.0-2.0-1.23","1032","11","pre","4","afternoon","2026-04-15","2026-04-27","2026-04-18T22:50:16.961Z","Mozilla/5.0 (Linux; Android 16; Pixel 9 Pro Build/CP1A.260405.005; wv) AppleWebKit/537.36 (KHTML, like Gecko) Version/4.0 Chrome/146.0.7680.177 Mobile Safari/537.36","394","719","420","","2045","<div class=""prompt"" style=""font-size:24px; margin-bottom:20px;"">Which word describes you more?</div>","0","pairing","24","thoughtful","spirited","PosPos","100","66","positive","positive","34","thoughtful","left","true"
"instructions","50","80014","0.0-3.0","1032","11","pre","4","afternoon","2026-04-15","2026-04-27","2026-04-18T22:50:16.961Z","Mozilla/5.0 (Linux; Android 16; Pixel 9 Pro Build/CP1A.260405.005; wv) AppleWebKit/537.36 (KHTML, like Gecko) Version/4.0 Chrome/146.0.7680.177 Mobile Safari/537.36","394","719","420","[{""page_index"":0,""viewing_time"":785}]","785","","","","","","","","","","","","","","",""
