"trial_type","trial_index","time_elapsed","internal_node_id","PUNS_ID","session_number","session_phase","session_day","session_slot","ema_start_date","ema_post_start_date","experiment_start","browser","screen_width","screen_height","timezone_offset","view_history","rt","stimulus","response","which_experiment_phase","trial_number","left_word","right_word","valence","left_base_rating","right_base_rating","left_valence","right_valence","abs_diff","participant_response","chosen_side","valid_response"
"pavlovia","0","1959","0.0-0.0","1083","30","pre","10","evening","2026-04-15","2026-04-27","2026-04-25T04:08:44.707Z","Mozilla/5.0 (iPhone; CPU iPhone OS 18_7 like Mac OS X) AppleWebKit/605.1.15 (KHTML, like Gecko) Mobile/15E148","358","632","420","","","","","","","","","","","","","","","","",""
"instructions","1","28294","0.0-1.0","1083","30","pre","10","evening","2026-04-15","2026-04-27","2026-04-25T04:08:44.707Z","Mozilla/5.0 (iPhone; CPU iPhone OS 18_7 like Mac OS X) AppleWebKit/605.1.15 (KHTML, like Gecko) Mobile/15E148","358","632","420","[{""page_index"":0,""viewing_time"":5185},{""page_index"":1,""viewing_time"":733},{""page_index"":2,""viewing_time"":19361},{""page_index"":3,""viewing_time"":1049}]","26330","","","","","","","","","","","","","","",""
"html-keyboard-response","2","29099","0.0-2.0-0.0","1083","30","pre","10","evening","2026-04-15","2026-04-27","2026-04-25T04:08:44.707Z","Mozilla/5.0 (iPhone; CPU iPhone OS 18_7 like Mac OS X) AppleWebKit/605.1.15 (KHTML, like Gecko) Mobile/15E148","358","632","420","","null","<div style=""font-size:60px;"">+</div>","null","fixation","","","","","","","","","","","",""
"html-button-response","3","32053","0.0-2.0-1.0","1083","30","pre","10","evening","2026-04-15","2026-04-27","2026-04-25T04:08:44.707Z","Mozilla/5.0 (iPhone; CPU iPhone OS 18_7 like Mac OS X) AppleWebKit/605.1.15 (KHTML, like Gecko) Mobile/15E148","358","632","420","","2948","<div class=""prompt"" style=""font-size:24px; margin-bottom:20px;"">Which word describes you more?</div>","1","pairing","1","champion","spectacular","PosPos","11","67","positive","positive","56","spectacular","right","true"
"html-keyboard-response","4","32857","0.0-2.0-0.1","1083","30","pre","10","evening","2026-04-15","2026-04-27","2026-04-25T04:08:44.707Z","Mozilla/5.0 (iPhone; CPU iPhone OS 18_7 like Mac OS X) AppleWebKit/605.1.15 (KHTML, like Gecko) Mobile/15E148","358","632","420","","null","<div style=""font-size:60px;"">+</div>","null","fixation","","","","","","","","","","","",""
"html-button-response","5","34932","0.0-2.0-1.1","1083","30","pre","10","evening","2026-04-15","2026-04-27","2026-04-25T04:08:44.707Z","Mozilla/5.0 (iPhone; CPU iPhone OS 18_7 like Mac OS X) AppleWebKit/605.1.15 (KHTML, like Gecko) Mobile/15E148","358","632","420","","2071","<div class=""prompt"" style=""font-size:24px; margin-bottom:20px;"">Which word describes you more?</div>","0","pairing","2","sensible","distressed","PosNeg","100","18","positive","negative","82","sensible","left","true"
"html-keyboard-response","6","35735","0.0-2.0-0.2","1083","30","pre","10","evening","2026-04-15","2026-04-27","2026-04-25T04:08:44.707Z","Mozilla/5.0 (iPhone; CPU iPhone OS 18_7 like Mac OS X) AppleWebKit/605.1.15 (KHTML, like Gecko) Mobile/15E148","358","632","420","","null","<div style=""font-size:60px;"">+</div>","null","fixation","","","","","","","","","","","",""
"html-button-response","7","37707","0.0-2.0-1.2","1083","30","pre","10","evening","2026-04-15","2026-04-27","2026-04-25T04:08:44.707Z","Mozilla/5.0 (iPhone; CPU iPhone OS 18_7 like Mac OS X) AppleWebKit/605.1.15 (KHTML, like Gecko) Mobile/15E148","358","632","420","","1967","<div class=""prompt"" style=""font-size:24px; margin-bottom:20px;"">Which word describes you more?</div>","1","pairing","3","burden","witty","PosNeg","38","33","negative","positive","5","witty","right","true"
"html-keyboard-response","8","38510","0.0-2.0-0.3","1083","30","pre","10","evening","2026-04-15","2026-04-27","2026-04-25T04:08:44.707Z","Mozilla/5.0 (iPhone; CPU iPhone OS 18_7 like Mac OS X) AppleWebKit/605.1.15 (KHTML, like Gecko) Mobile/15E148","358","632","420","","null","<div style=""font-size:60px;"">+</div>","null","fixation","","","","","","","","","","","",""
"html-button-response","9","40223","0.0-2.0-1.3","1083","30","pre","10","evening","2026-04-15","2026-04-27","2026-04-25T04:08:44.707Z","Mozilla/5.0 (iPhone; CPU iPhone OS 18_7 like Mac OS X) AppleWebKit/605.1.15 (KHTML, like Gecko) Mobile/15E148","358","632","420","","1710","<div class=""prompt"" style=""font-size:24px; margin-bottom:20px;"">Which word describes you more?</div>","0","pairing","4","violent","phony","NegNeg","1","0","negative","negative","1","violent","left","true"
"html-keyboard-response","10","41026","0.0-2.0-0.4","1083","30","pre","10","evening","2026-04-15","2026-04-27","2026-04-25T04:08:44.707Z","Mozilla/5.0 (iPhone; CPU iPhone OS 18_7 like Mac OS X) AppleWebKit/605.1.15 (KHTML, like Gecko) Mobile/15E148","358","632","420","","null","<div style=""font-size:60px;"">+</div>","null","fixation","","","","","","","","","","","",""
"html-button-response","11","43177","0.0-2.0-1.4","1083","30","pre","10","evening","2026-04-15","2026-04-27","2026-04-25T04:08:44.707Z","Mozilla/5.0 (iPhone; CPU iPhone OS 18_7 like Mac OS X) AppleWebKit/605.1.15 (KHTML, like Gecko) Mobile/15E148","358","632","420","","2148","<div class=""prompt"" style=""font-size:24px; margin-bottom:20px;"">Which word describes you more?</div>","0","pairing","5","legendary","hateful","PosNeg","2","6","positive","negative","4","legendary","left","true"
"html-keyboard-response","12","43980","0.0-2.0-0.5","1083","30","pre","10","evening","2026-04-15","2026-04-27","2026-04-25T04:08:44.707Z","Mozilla/5.0 (iPhone; CPU iPhone OS 18_7 like Mac OS X) AppleWebKit/605.1.15 (KHTML, like Gecko) Mobile/15E148","358","632","420","","null","<div style=""font-size:60px;"">+</div>","null","fixation","","","","","","","","","","","",""
"html-button-response","13","45964","0.0-2.0-1.5","1083","30","pre","10","evening","2026-04-15","2026-04-27","2026-04-25T04:08:44.707Z","Mozilla/5.0 (iPhone; CPU iPhone OS 18_7 like Mac OS X) AppleWebKit/605.1.15 (KHTML, like Gecko) Mobile/15E148","358","632","420","","1982","<div class=""prompt"" style=""font-size:24px; margin-bottom:20px;"">Which word describes you more?</div>","0","pairing","6","unlucky","deceitful","NegNeg","49","0","negative","negative","49","unlucky","left","true"
"html-keyboard-response","14","46767","0.0-2.0-0.6","1083","30","pre","10","evening","2026-04-15","2026-04-27","2026-04-25T04:08:44.707Z","Mozilla/5.0 (iPhone; CPU iPhone OS 18_7 like Mac OS X) AppleWebKit/605.1.15 (KHTML, like Gecko) Mobile/15E148","358","632","420","","null","<div style=""font-size:60px;"">+</div>","null","fixation","","","","","","","","","","","",""
"html-button-response","15","48615","0.0-2.0-1.6","1083","30","pre","10","evening","2026-04-15","2026-04-27","2026-04-25T04:08:44.707Z","Mozilla/5.0 (iPhone; CPU iPhone OS 18_7 like Mac OS X) AppleWebKit/605.1.15 (KHTML, like Gecko) Mobile/15E148","358","632","420","","1843","<div class=""prompt"" style=""font-size:24px; margin-bottom:20px;"">Which word describes you more?</div>","1","pairing","7","awful","hesitant","NegNeg","4","84","negative","negative","80","hesitant","right","true"
"html-keyboard-response","16","49418","0.0-2.0-0.7","1083","30","pre","10","evening","2026-04-15","2026-04-27","2026-04-25T04:08:44.707Z","Mozilla/5.0 (iPhone; CPU iPhone OS 18_7 like Mac OS X) AppleWebKit/605.1.15 (KHTML, like Gecko) Mobile/15E148","358","632","420","","null","<div style=""font-size:60px;"">+</div>","null","fixation","","","","","","","","","","","",""
"html-button-response","17","51738","0.0-2.0-1.7","1083","30","pre","10","evening","2026-04-15","2026-04-27","2026-04-25T04:08:44.707Z","Mozilla/5.0 (iPhone; CPU iPhone OS 18_7 like Mac OS X) AppleWebKit/605.1.15 (KHTML, like Gecko) Mobile/15E148","358","632","420","","2315","<div class=""prompt"" style=""font-size:24px; margin-bottom:20px;"">Which word describes you more?</div>","0","pairing","8","graceful","untrustworthy","PosNeg","32","1","positive","negative","31","graceful","left","true"
"html-keyboard-response","18","52541","0.0-2.0-0.8","1083","30","pre","10","evening","2026-04-15","2026-04-27","2026-04-25T04:08:44.707Z","Mozilla/5.0 (iPhone; CPU iPhone OS 18_7 like Mac OS X) AppleWebKit/605.1.15 (KHTML, like Gecko) Mobile/15E148","358","632","420","","null","<div style=""font-size:60px;"">+</div>","null","fixation","","","","","","","","","","","",""
"html-button-response","19","54574","0.0-2.0-1.8","1083","30","pre","10","evening","2026-04-15","2026-04-27","2026-04-25T04:08:44.707Z","Mozilla/5.0 (iPhone; CPU iPhone OS 18_7 like Mac OS X) AppleWebKit/605.1.15 (KHTML, like Gecko) Mobile/15E148","358","632","420","","2031","<div class=""prompt"" style=""font-size:24px; margin-bottom:20px;"">Which word describes you more?</div>","1","pairing","9","repulsive","flawless","PosNeg","0","24","negative","positive","24","flawless","right","true"
"html-keyboard-response","20","55376","0.0-2.0-0.9","1083","30","pre","10","evening","2026-04-15","2026-04-27","2026-04-25T04:08:44.707Z","Mozilla/5.0 (iPhone; CPU iPhone OS 18_7 like Mac OS X) AppleWebKit/605.1.15 (KHTML, like Gecko) Mobile/15E148","358","632","420","","null","<div style=""font-size:60px;"">+</div>","null","fixation","","","","","","","","","","","",""
"html-button-response","21","56809","0.0-2.0-1.9","1083","30","pre","10","evening","2026-04-15","2026-04-27","2026-04-25T04:08:44.707Z","Mozilla/5.0 (iPhone; CPU iPhone OS 18_7 like Mac OS X) AppleWebKit/605.1.15 (KHTML, like Gecko) Mobile/15E148","358","632","420","","1430","<div class=""prompt"" style=""font-size:24px; margin-bottom:20px;"">Which word describes you more?</div>","1","pairing","10","sloppy","patient","PosNeg","43","9","negative","positive","34","patient","right","true"
"html-keyboard-response","22","57612","0.0-2.0-0.10","1083","30","pre","10","evening","2026-04-15","2026-04-27","2026-04-25T04:08:44.707Z","Mozilla/5.0 (iPhone; CPU iPhone OS 18_7 like Mac OS X) AppleWebKit/605.1.15 (KHTML, like Gecko) Mobile/15E148","358","632","420","","null","<div style=""font-size:60px;"">+</div>","null","fixation","","","","","","","","","","","",""
"html-button-response","23","60449","0.0-2.0-1.10","1083","30","pre","10","evening","2026-04-15","2026-04-27","2026-04-25T04:08:44.707Z","Mozilla/5.0 (iPhone; CPU iPhone OS 18_7 like Mac OS X) AppleWebKit/605.1.15 (KHTML, like Gecko) Mobile/15E148","358","632","420","","2835","<div class=""prompt"" style=""font-size:24px; margin-bottom:20px;"">Which word describes you more?</div>","0","pairing","11","proficient","insecure","PosNeg","58","96","positive","negative","38","proficient","left","true"
"html-keyboard-response","24","61253","0.0-2.0-0.11","1083","30","pre","10","evening","2026-04-15","2026-04-27","2026-04-25T04:08:44.707Z","Mozilla/5.0 (iPhone; CPU iPhone OS 18_7 like Mac OS X) AppleWebKit/605.1.15 (KHTML, like Gecko) Mobile/15E148","358","632","420","","null","<div style=""font-size:60px;"">+</div>","null","fixation","","","","","","","","","","","",""
"html-button-response","25","63753","0.0-2.0-1.11","1083","30","pre","10","evening","2026-04-15","2026-04-27","2026-04-25T04:08:44.707Z","Mozilla/5.0 (iPhone; CPU iPhone OS 18_7 like Mac OS X) AppleWebKit/605.1.15 (KHTML, like Gecko) Mobile/15E148","358","632","420","","2497","<div class=""prompt"" style=""font-size:24px; margin-bottom:20px;"">Which word describes you more?</div>","1","pairing","12","pest","stingy","NegNeg","0","43","negative","negative","43","stingy","right","true"
"html-keyboard-response","26","64556","0.0-2.0-0.12","1083","30","pre","10","evening","2026-04-15","2026-04-27","2026-04-25T04:08:44.707Z","Mozilla/5.0 (iPhone; CPU iPhone OS 18_7 like Mac OS X) AppleWebKit/605.1.15 (KHTML, like Gecko) Mobile/15E148","358","632","420","","null","<div style=""font-size:60px;"">+</div>","null","fixation","","","","","","","","","","","",""
"html-button-response","27","67033","0.0-2.0-1.12","1083","30","pre","10","evening","2026-04-15","2026-04-27","2026-04-25T04:08:44.707Z","Mozilla/5.0 (iPhone; CPU iPhone OS 18_7 like Mac OS X) AppleWebKit/605.1.15 (KHTML, like Gecko) Mobile/15E148","358","632","420","","2476","<div class=""prompt"" style=""font-size:24px; margin-bottom:20px;"">Which word describes you more?</div>","1","pairing","13","champion","insecure","PosNeg","11","96","positive","negative","85","insecure","right","true"
"html-keyboard-response","28","67835","0.0-2.0-0.13","1083","30","pre","10","evening","2026-04-15","2026-04-27","2026-04-25T04:08:44.707Z","Mozilla/5.0 (iPhone; CPU iPhone OS 18_7 like Mac OS X) AppleWebKit/605.1.15 (KHTML, like Gecko) Mobile/15E148","358","632","420","","null","<div style=""font-size:60px;"">+</div>","null","fixation","","","","","","","","","","","",""
"html-button-response","29","69410","0.0-2.0-1.13","1083","30","pre","10","evening","2026-04-15","2026-04-27","2026-04-25T04:08:44.707Z","Mozilla/5.0 (iPhone; CPU iPhone OS 18_7 like Mac OS X) AppleWebKit/605.1.15 (KHTML, like Gecko) Mobile/15E148","358","632","420","","1573","<div class=""prompt"" style=""font-size:24px; margin-bottom:20px;"">Which word describes you more?</div>","0","pairing","14","capable","asset","PosPos","92","1","positive","positive","91","capable","left","true"
"html-keyboard-response","30","70212","0.0-2.0-0.14","1083","30","pre","10","evening","2026-04-15","2026-04-27","2026-04-25T04:08:44.707Z","Mozilla/5.0 (iPhone; CPU iPhone OS 18_7 like Mac OS X) AppleWebKit/605.1.15 (KHTML, like Gecko) Mobile/15E148","358","632","420","","null","<div style=""font-size:60px;"">+</div>","null","fixation","","","","","","","","","","","",""
"html-button-response","31","71644","0.0-2.0-1.14","1083","30","pre","10","evening","2026-04-15","2026-04-27","2026-04-25T04:08:44.707Z","Mozilla/5.0 (iPhone; CPU iPhone OS 18_7 like Mac OS X) AppleWebKit/605.1.15 (KHTML, like Gecko) Mobile/15E148","358","632","420","","1430","<div class=""prompt"" style=""font-size:24px; margin-bottom:20px;"">Which word describes you more?</div>","1","pairing","15","bitter","easygoing","PosNeg","0","73","negative","positive","73","easygoing","right","true"
"html-keyboard-response","32","72447","0.0-2.0-0.15","1083","30","pre","10","evening","2026-04-15","2026-04-27","2026-04-25T04:08:44.707Z","Mozilla/5.0 (iPhone; CPU iPhone OS 18_7 like Mac OS X) AppleWebKit/605.1.15 (KHTML, like Gecko) Mobile/15E148","358","632","420","","null","<div style=""font-size:60px;"">+</div>","null","fixation","","","","","","","","","","","",""
"html-button-response","33","73865","0.0-2.0-1.15","1083","30","pre","10","evening","2026-04-15","2026-04-27","2026-04-25T04:08:44.707Z","Mozilla/5.0 (iPhone; CPU iPhone OS 18_7 like Mac OS X) AppleWebKit/605.1.15 (KHTML, like Gecko) Mobile/15E148","358","632","420","","1415","<div class=""prompt"" style=""font-size:24px; margin-bottom:20px;"">Which word describes you more?</div>","1","pairing","16","unique","tolerant","PosPos","29","60","positive","positive","31","tolerant","right","true"
"html-keyboard-response","34","74668","0.0-2.0-0.16","1083","30","pre","10","evening","2026-04-15","2026-04-27","2026-04-25T04:08:44.707Z","Mozilla/5.0 (iPhone; CPU iPhone OS 18_7 like Mac OS X) AppleWebKit/605.1.15 (KHTML, like Gecko) Mobile/15E148","358","632","420","","null","<div style=""font-size:60px;"">+</div>","null","fixation","","","","","","","","","","","",""
"html-button-response","35","75866","0.0-2.0-1.16","1083","30","pre","10","evening","2026-04-15","2026-04-27","2026-04-25T04:08:44.707Z","Mozilla/5.0 (iPhone; CPU iPhone OS 18_7 like Mac OS X) AppleWebKit/605.1.15 (KHTML, like Gecko) Mobile/15E148","358","632","420","","1195","<div class=""prompt"" style=""font-size:24px; margin-bottom:20px;"">Which word describes you more?</div>","0","pairing","17","energetic","unwanted","PosNeg","51","12","positive","negative","39","energetic","left","true"
"html-keyboard-response","36","76669","0.0-2.0-0.17","1083","30","pre","10","evening","2026-04-15","2026-04-27","2026-04-25T04:08:44.707Z","Mozilla/5.0 (iPhone; CPU iPhone OS 18_7 like Mac OS X) AppleWebKit/605.1.15 (KHTML, like Gecko) Mobile/15E148","358","632","420","","null","<div style=""font-size:60px;"">+</div>","null","fixation","","","","","","","","","","","",""
"html-button-response","37","78854","0.0-2.0-1.17","1083","30","pre","10","evening","2026-04-15","2026-04-27","2026-04-25T04:08:44.707Z","Mozilla/5.0 (iPhone; CPU iPhone OS 18_7 like Mac OS X) AppleWebKit/605.1.15 (KHTML, like Gecko) Mobile/15E148","358","632","420","","2183","<div class=""prompt"" style=""font-size:24px; margin-bottom:20px;"">Which word describes you more?</div>","1","pairing","18","charming","idealistic","PosPos","92","28","positive","positive","64","idealistic","right","true"
"html-keyboard-response","38","79657","0.0-2.0-0.18","1083","30","pre","10","evening","2026-04-15","2026-04-27","2026-04-25T04:08:44.707Z","Mozilla/5.0 (iPhone; CPU iPhone OS 18_7 like Mac OS X) AppleWebKit/605.1.15 (KHTML, like Gecko) Mobile/15E148","358","632","420","","null","<div style=""font-size:60px;"">+</div>","null","fixation","","","","","","","","","","","",""
"html-button-response","39","80957","0.0-2.0-1.18","1083","30","pre","10","evening","2026-04-15","2026-04-27","2026-04-25T04:08:44.707Z","Mozilla/5.0 (iPhone; CPU iPhone OS 18_7 like Mac OS X) AppleWebKit/605.1.15 (KHTML, like Gecko) Mobile/15E148","358","632","420","","1297","<div class=""prompt"" style=""font-size:24px; margin-bottom:20px;"">Which word describes you more?</div>","0","pairing","19","insecure","creep","NegNeg","96","0","negative","negative","96","insecure","left","true"
"html-keyboard-response","40","81759","0.0-2.0-0.19","1083","30","pre","10","evening","2026-04-15","2026-04-27","2026-04-25T04:08:44.707Z","Mozilla/5.0 (iPhone; CPU iPhone OS 18_7 like Mac OS X) AppleWebKit/605.1.15 (KHTML, like Gecko) Mobile/15E148","358","632","420","","null","<div style=""font-size:60px;"">+</div>","null","fixation","","","","","","","","","","","",""
"html-button-response","41","83810","0.0-2.0-1.19","1083","30","pre","10","evening","2026-04-15","2026-04-27","2026-04-25T04:08:44.707Z","Mozilla/5.0 (iPhone; CPU iPhone OS 18_7 like Mac OS X) AppleWebKit/605.1.15 (KHTML, like Gecko) Mobile/15E148","358","632","420","","2048","<div class=""prompt"" style=""font-size:24px; margin-bottom:20px;"">Which word describes you more?</div>","1","pairing","20","asset","pleased","PosPos","1","81","positive","positive","80","pleased","right","true"
"html-keyboard-response","42","84612","0.0-2.0-0.20","1083","30","pre","10","evening","2026-04-15","2026-04-27","2026-04-25T04:08:44.707Z","Mozilla/5.0 (iPhone; CPU iPhone OS 18_7 like Mac OS X) AppleWebKit/605.1.15 (KHTML, like Gecko) Mobile/15E148","358","632","420","","null","<div style=""font-size:60px;"">+</div>","null","fixation","","","","","","","","","","","",""
"html-button-response","43","86602","0.0-2.0-1.20","1083","30","pre","10","evening","2026-04-15","2026-04-27","2026-04-25T04:08:44.707Z","Mozilla/5.0 (iPhone; CPU iPhone OS 18_7 like Mac OS X) AppleWebKit/605.1.15 (KHTML, like Gecko) Mobile/15E148","358","632","420","","1988","<div class=""prompt"" style=""font-size:24px; margin-bottom:20px;"">Which word describes you more?</div>","0","pairing","21","bitter","hopeless","NegNeg","0","3","negative","negative","3","bitter","left","true"
"html-keyboard-response","44","87404","0.0-2.0-0.21","1083","30","pre","10","evening","2026-04-15","2026-04-27","2026-04-25T04:08:44.707Z","Mozilla/5.0 (iPhone; CPU iPhone OS 18_7 like Mac OS X) AppleWebKit/605.1.15 (KHTML, like Gecko) Mobile/15E148","358","632","420","","null","<div style=""font-size:60px;"">+</div>","null","fixation","","","","","","","","","","","",""
"html-button-response","45","88889","0.0-2.0-1.21","1083","30","pre","10","evening","2026-04-15","2026-04-27","2026-04-25T04:08:44.707Z","Mozilla/5.0 (iPhone; CPU iPhone OS 18_7 like Mac OS X) AppleWebKit/605.1.15 (KHTML, like Gecko) Mobile/15E148","358","632","420","","1482","<div class=""prompt"" style=""font-size:24px; margin-bottom:20px;"">Which word describes you more?</div>","0","pairing","22","anxious","legendary","PosNeg","70","2","negative","positive","68","anxious","left","true"
"html-keyboard-response","46","89691","0.0-2.0-0.22","1083","30","pre","10","evening","2026-04-15","2026-04-27","2026-04-25T04:08:44.707Z","Mozilla/5.0 (iPhone; CPU iPhone OS 18_7 like Mac OS X) AppleWebKit/605.1.15 (KHTML, like Gecko) Mobile/15E148","358","632","420","","null","<div style=""font-size:60px;"">+</div>","null","fixation","","","","","","","","","","","",""
"html-button-response","47","91572","0.0-2.0-1.22","1083","30","pre","10","evening","2026-04-15","2026-04-27","2026-04-25T04:08:44.707Z","Mozilla/5.0 (iPhone; CPU iPhone OS 18_7 like Mac OS X) AppleWebKit/605.1.15 (KHTML, like Gecko) Mobile/15E148","358","632","420","","1876","<div class=""prompt"" style=""font-size:24px; margin-bottom:20px;"">Which word describes you more?</div>","1","pairing","23","disastrous","fun","PosNeg","0","59","negative","positive","59","fun","right","true"
"html-keyboard-response","48","92375","0.0-2.0-0.23","1083","30","pre","10","evening","2026-04-15","2026-04-27","2026-04-25T04:08:44.707Z","Mozilla/5.0 (iPhone; CPU iPhone OS 18_7 like Mac OS X) AppleWebKit/605.1.15 (KHTML, like Gecko) Mobile/15E148","358","632","420","","null","<div style=""font-size:60px;"">+</div>","null","fixation","","","","","","","","","","","",""
"html-button-response","49","94091","0.0-2.0-1.23","1083","30","pre","10","evening","2026-04-15","2026-04-27","2026-04-25T04:08:44.707Z","Mozilla/5.0 (iPhone; CPU iPhone OS 18_7 like Mac OS X) AppleWebKit/605.1.15 (KHTML, like Gecko) Mobile/15E148","358","632","420","","1714","<div class=""prompt"" style=""font-size:24px; margin-bottom:20px;"">Which word describes you more?</div>","0","pairing","24","brave","companion","PosPos","74","60","positive","positive","14","brave","left","true"
"instructions","50","95373","0.0-3.0","1083","30","pre","10","evening","2026-04-15","2026-04-27","2026-04-25T04:08:44.707Z","Mozilla/5.0 (iPhone; CPU iPhone OS 18_7 like Mac OS X) AppleWebKit/605.1.15 (KHTML, like Gecko) Mobile/15E148","358","632","420","[{""page_index"":0,""viewing_time"":1280}]","1280","","","","","","","","","","","","","","",""
