"trial_type","trial_index","time_elapsed","internal_node_id","PUNS_ID","session_number","session_phase","session_day","session_slot","ema_start_date","ema_post_start_date","experiment_start","browser","screen_width","screen_height","timezone_offset","view_history","rt","stimulus","response","which_experiment_phase","trial_number","left_word","right_word","valence","left_base_rating","right_base_rating","left_valence","right_valence","abs_diff","participant_response","chosen_side","valid_response"
"pavlovia","0","714","0.0-0.0","9005","2","pre","1","afternoon","2026-02-05","2026-02-17","2026-02-05T22:08:56.427Z","Mozilla/5.0 (iPhone; CPU iPhone OS 18_7 like Mac OS X) AppleWebKit/605.1.15 (KHTML, like Gecko) Version/26.2 Mobile/15E148 Safari/604.1","390","699","300","","","","","","","","","","","","","","","","",""
"instructions","1","12024","0.0-1.0","9005","2","pre","1","afternoon","2026-02-05","2026-02-17","2026-02-05T22:08:56.427Z","Mozilla/5.0 (iPhone; CPU iPhone OS 18_7 like Mac OS X) AppleWebKit/605.1.15 (KHTML, like Gecko) Version/26.2 Mobile/15E148 Safari/604.1","390","699","300","[{""page_index"":0,""viewing_time"":2548},{""page_index"":1,""viewing_time"":2578},{""page_index"":2,""viewing_time"":3877},{""page_index"":3,""viewing_time"":2303}]","11307","","","","","","","","","","","","","","",""
"html-keyboard-response","2","12828","0.0-2.0-0.0","9005","2","pre","1","afternoon","2026-02-05","2026-02-17","2026-02-05T22:08:56.427Z","Mozilla/5.0 (iPhone; CPU iPhone OS 18_7 like Mac OS X) AppleWebKit/605.1.15 (KHTML, like Gecko) Version/26.2 Mobile/15E148 Safari/604.1","390","699","300","","null","<div style=""font-size:60px;"">+</div>","null","fixation","","","","","","","","","","","",""
"html-button-response","3","13813","0.0-2.0-1.0","9005","2","pre","1","afternoon","2026-02-05","2026-02-17","2026-02-05T22:08:56.427Z","Mozilla/5.0 (iPhone; CPU iPhone OS 18_7 like Mac OS X) AppleWebKit/605.1.15 (KHTML, like Gecko) Version/26.2 Mobile/15E148 Safari/604.1","390","699","300","","976","<div class=""prompt"" style=""font-size:24px; margin-bottom:20px;"">Which word describes you more?</div>","0","pairing","1","irresponsible","menace","NegNeg","69","15","negative","negative","54","irresponsible","left","true"
"html-keyboard-response","4","14617","0.0-2.0-0.1","9005","2","pre","1","afternoon","2026-02-05","2026-02-17","2026-02-05T22:08:56.427Z","Mozilla/5.0 (iPhone; CPU iPhone OS 18_7 like Mac OS X) AppleWebKit/605.1.15 (KHTML, like Gecko) Version/26.2 Mobile/15E148 Safari/604.1","390","699","300","","null","<div style=""font-size:60px;"">+</div>","null","fixation","","","","","","","","","","","",""
"html-button-response","5","15016","0.0-2.0-1.1","9005","2","pre","1","afternoon","2026-02-05","2026-02-17","2026-02-05T22:08:56.427Z","Mozilla/5.0 (iPhone; CPU iPhone OS 18_7 like Mac OS X) AppleWebKit/605.1.15 (KHTML, like Gecko) Version/26.2 Mobile/15E148 Safari/604.1","390","699","300","","396","<div class=""prompt"" style=""font-size:24px; margin-bottom:20px;"">Which word describes you more?</div>","1","pairing","2","worthless","flawless","PosNeg","69","49","negative","positive","20","flawless","right","true"
"html-keyboard-response","6","15818","0.0-2.0-0.2","9005","2","pre","1","afternoon","2026-02-05","2026-02-17","2026-02-05T22:08:56.427Z","Mozilla/5.0 (iPhone; CPU iPhone OS 18_7 like Mac OS X) AppleWebKit/605.1.15 (KHTML, like Gecko) Version/26.2 Mobile/15E148 Safari/604.1","390","699","300","","null","<div style=""font-size:60px;"">+</div>","null","fixation","","","","","","","","","","","",""
"html-button-response","7","16622","0.0-2.0-1.2","9005","2","pre","1","afternoon","2026-02-05","2026-02-17","2026-02-05T22:08:56.427Z","Mozilla/5.0 (iPhone; CPU iPhone OS 18_7 like Mac OS X) AppleWebKit/605.1.15 (KHTML, like Gecko) Version/26.2 Mobile/15E148 Safari/604.1","390","699","300","","800","<div class=""prompt"" style=""font-size:24px; margin-bottom:20px;"">Which word describes you more?</div>","0","pairing","3","respectable","cruel","PosNeg","69","24","positive","negative","45","respectable","left","true"
"html-keyboard-response","8","17425","0.0-2.0-0.3","9005","2","pre","1","afternoon","2026-02-05","2026-02-17","2026-02-05T22:08:56.427Z","Mozilla/5.0 (iPhone; CPU iPhone OS 18_7 like Mac OS X) AppleWebKit/605.1.15 (KHTML, like Gecko) Version/26.2 Mobile/15E148 Safari/604.1","390","699","300","","null","<div style=""font-size:60px;"">+</div>","null","fixation","","","","","","","","","","","",""
"html-button-response","9","18184","0.0-2.0-1.3","9005","2","pre","1","afternoon","2026-02-05","2026-02-17","2026-02-05T22:08:56.427Z","Mozilla/5.0 (iPhone; CPU iPhone OS 18_7 like Mac OS X) AppleWebKit/605.1.15 (KHTML, like Gecko) Version/26.2 Mobile/15E148 Safari/604.1","390","699","300","","757","<div class=""prompt"" style=""font-size:24px; margin-bottom:20px;"">Which word describes you more?</div>","1","pairing","4","healthy","safe","PosPos","49","69","positive","positive","20","safe","right","true"
"html-keyboard-response","10","18987","0.0-2.0-0.4","9005","2","pre","1","afternoon","2026-02-05","2026-02-17","2026-02-05T22:08:56.427Z","Mozilla/5.0 (iPhone; CPU iPhone OS 18_7 like Mac OS X) AppleWebKit/605.1.15 (KHTML, like Gecko) Version/26.2 Mobile/15E148 Safari/604.1","390","699","300","","null","<div style=""font-size:60px;"">+</div>","null","fixation","","","","","","","","","","","",""
"html-button-response","11","19778","0.0-2.0-1.4","9005","2","pre","1","afternoon","2026-02-05","2026-02-17","2026-02-05T22:08:56.427Z","Mozilla/5.0 (iPhone; CPU iPhone OS 18_7 like Mac OS X) AppleWebKit/605.1.15 (KHTML, like Gecko) Version/26.2 Mobile/15E148 Safari/604.1","390","699","300","","788","<div class=""prompt"" style=""font-size:24px; margin-bottom:20px;"">Which word describes you more?</div>","1","pairing","5","fun","respectful","PosPos","69","49","positive","positive","20","respectful","right","true"
"html-keyboard-response","12","20581","0.0-2.0-0.5","9005","2","pre","1","afternoon","2026-02-05","2026-02-17","2026-02-05T22:08:56.427Z","Mozilla/5.0 (iPhone; CPU iPhone OS 18_7 like Mac OS X) AppleWebKit/605.1.15 (KHTML, like Gecko) Version/26.2 Mobile/15E148 Safari/604.1","390","699","300","","null","<div style=""font-size:60px;"">+</div>","null","fixation","","","","","","","","","","","",""
"html-button-response","13","21148","0.0-2.0-1.5","9005","2","pre","1","afternoon","2026-02-05","2026-02-17","2026-02-05T22:08:56.427Z","Mozilla/5.0 (iPhone; CPU iPhone OS 18_7 like Mac OS X) AppleWebKit/605.1.15 (KHTML, like Gecko) Version/26.2 Mobile/15E148 Safari/604.1","390","699","300","","565","<div class=""prompt"" style=""font-size:24px; margin-bottom:20px;"">Which word describes you more?</div>","0","pairing","6","gross","asset","PosNeg","15","69","negative","positive","54","gross","left","true"
"html-keyboard-response","14","21951","0.0-2.0-0.6","9005","2","pre","1","afternoon","2026-02-05","2026-02-17","2026-02-05T22:08:56.427Z","Mozilla/5.0 (iPhone; CPU iPhone OS 18_7 like Mac OS X) AppleWebKit/605.1.15 (KHTML, like Gecko) Version/26.2 Mobile/15E148 Safari/604.1","390","699","300","","null","<div style=""font-size:60px;"">+</div>","null","fixation","","","","","","","","","","","",""
"html-button-response","15","23217","0.0-2.0-1.6","9005","2","pre","1","afternoon","2026-02-05","2026-02-17","2026-02-05T22:08:56.427Z","Mozilla/5.0 (iPhone; CPU iPhone OS 18_7 like Mac OS X) AppleWebKit/605.1.15 (KHTML, like Gecko) Version/26.2 Mobile/15E148 Safari/604.1","390","699","300","","1261","<div class=""prompt"" style=""font-size:24px; margin-bottom:20px;"">Which word describes you more?</div>","1","pairing","7","expert","disgusting","PosNeg","49","15","positive","negative","34","disgusting","right","true"
"html-keyboard-response","16","24020","0.0-2.0-0.7","9005","2","pre","1","afternoon","2026-02-05","2026-02-17","2026-02-05T22:08:56.427Z","Mozilla/5.0 (iPhone; CPU iPhone OS 18_7 like Mac OS X) AppleWebKit/605.1.15 (KHTML, like Gecko) Version/26.2 Mobile/15E148 Safari/604.1","390","699","300","","null","<div style=""font-size:60px;"">+</div>","null","fixation","","","","","","","","","","","",""
"html-button-response","17","24606","0.0-2.0-1.7","9005","2","pre","1","afternoon","2026-02-05","2026-02-17","2026-02-05T22:08:56.427Z","Mozilla/5.0 (iPhone; CPU iPhone OS 18_7 like Mac OS X) AppleWebKit/605.1.15 (KHTML, like Gecko) Version/26.2 Mobile/15E148 Safari/604.1","390","699","300","","584","<div class=""prompt"" style=""font-size:24px; margin-bottom:20px;"">Which word describes you more?</div>","0","pairing","8","gloomy","helper","PosNeg","69","49","negative","positive","20","gloomy","left","true"
"html-keyboard-response","18","25409","0.0-2.0-0.8","9005","2","pre","1","afternoon","2026-02-05","2026-02-17","2026-02-05T22:08:56.427Z","Mozilla/5.0 (iPhone; CPU iPhone OS 18_7 like Mac OS X) AppleWebKit/605.1.15 (KHTML, like Gecko) Version/26.2 Mobile/15E148 Safari/604.1","390","699","300","","null","<div style=""font-size:60px;"">+</div>","null","fixation","","","","","","","","","","","",""
"html-button-response","19","27716","0.0-2.0-1.8","9005","2","pre","1","afternoon","2026-02-05","2026-02-17","2026-02-05T22:08:56.427Z","Mozilla/5.0 (iPhone; CPU iPhone OS 18_7 like Mac OS X) AppleWebKit/605.1.15 (KHTML, like Gecko) Version/26.2 Mobile/15E148 Safari/604.1","390","699","300","","2306","<div class=""prompt"" style=""font-size:24px; margin-bottom:20px;"">Which word describes you more?</div>","1","pairing","9","unfaithful","arrogant","NegNeg","15","69","negative","negative","54","arrogant","right","true"
"html-keyboard-response","20","28519","0.0-2.0-0.9","9005","2","pre","1","afternoon","2026-02-05","2026-02-17","2026-02-05T22:08:56.427Z","Mozilla/5.0 (iPhone; CPU iPhone OS 18_7 like Mac OS X) AppleWebKit/605.1.15 (KHTML, like Gecko) Version/26.2 Mobile/15E148 Safari/604.1","390","699","300","","null","<div style=""font-size:60px;"">+</div>","null","fixation","","","","","","","","","","","",""
"html-button-response","21","29539","0.0-2.0-1.9","9005","2","pre","1","afternoon","2026-02-05","2026-02-17","2026-02-05T22:08:56.427Z","Mozilla/5.0 (iPhone; CPU iPhone OS 18_7 like Mac OS X) AppleWebKit/605.1.15 (KHTML, like Gecko) Version/26.2 Mobile/15E148 Safari/604.1","390","699","300","","1018","<div class=""prompt"" style=""font-size:24px; margin-bottom:20px;"">Which word describes you more?</div>","1","pairing","10","headache","alluring","PosNeg","49","69","negative","positive","20","alluring","right","true"
"html-keyboard-response","22","30342","0.0-2.0-0.10","9005","2","pre","1","afternoon","2026-02-05","2026-02-17","2026-02-05T22:08:56.427Z","Mozilla/5.0 (iPhone; CPU iPhone OS 18_7 like Mac OS X) AppleWebKit/605.1.15 (KHTML, like Gecko) Version/26.2 Mobile/15E148 Safari/604.1","390","699","300","","null","<div style=""font-size:60px;"">+</div>","null","fixation","","","","","","","","","","","",""
"html-button-response","23","31226","0.0-2.0-1.10","9005","2","pre","1","afternoon","2026-02-05","2026-02-17","2026-02-05T22:08:56.427Z","Mozilla/5.0 (iPhone; CPU iPhone OS 18_7 like Mac OS X) AppleWebKit/605.1.15 (KHTML, like Gecko) Version/26.2 Mobile/15E148 Safari/604.1","390","699","300","","881","<div class=""prompt"" style=""font-size:24px; margin-bottom:20px;"">Which word describes you more?</div>","1","pairing","11","appealing","coward","PosNeg","69","69","positive","negative","0","coward","right","true"
"html-keyboard-response","24","32031","0.0-2.0-0.11","9005","2","pre","1","afternoon","2026-02-05","2026-02-17","2026-02-05T22:08:56.427Z","Mozilla/5.0 (iPhone; CPU iPhone OS 18_7 like Mac OS X) AppleWebKit/605.1.15 (KHTML, like Gecko) Version/26.2 Mobile/15E148 Safari/604.1","390","699","300","","null","<div style=""font-size:60px;"">+</div>","null","fixation","","","","","","","","","","","",""
"html-button-response","25","33132","0.0-2.0-1.11","9005","2","pre","1","afternoon","2026-02-05","2026-02-17","2026-02-05T22:08:56.427Z","Mozilla/5.0 (iPhone; CPU iPhone OS 18_7 like Mac OS X) AppleWebKit/605.1.15 (KHTML, like Gecko) Version/26.2 Mobile/15E148 Safari/604.1","390","699","300","","1098","<div class=""prompt"" style=""font-size:24px; margin-bottom:20px;"">Which word describes you more?</div>","1","pairing","12","idealistic","alone","PosNeg","15","69","positive","negative","54","alone","right","true"
"html-keyboard-response","26","33934","0.0-2.0-0.12","9005","2","pre","1","afternoon","2026-02-05","2026-02-17","2026-02-05T22:08:56.427Z","Mozilla/5.0 (iPhone; CPU iPhone OS 18_7 like Mac OS X) AppleWebKit/605.1.15 (KHTML, like Gecko) Version/26.2 Mobile/15E148 Safari/604.1","390","699","300","","null","<div style=""font-size:60px;"">+</div>","null","fixation","","","","","","","","","","","",""
"html-button-response","27","34597","0.0-2.0-1.12","9005","2","pre","1","afternoon","2026-02-05","2026-02-17","2026-02-05T22:08:56.427Z","Mozilla/5.0 (iPhone; CPU iPhone OS 18_7 like Mac OS X) AppleWebKit/605.1.15 (KHTML, like Gecko) Version/26.2 Mobile/15E148 Safari/604.1","390","699","300","","660","<div class=""prompt"" style=""font-size:24px; margin-bottom:20px;"">Which word describes you more?</div>","1","pairing","13","rude","dull","NegNeg","49","24","negative","negative","25","dull","right","true"
"html-keyboard-response","28","35399","0.0-2.0-0.13","9005","2","pre","1","afternoon","2026-02-05","2026-02-17","2026-02-05T22:08:56.427Z","Mozilla/5.0 (iPhone; CPU iPhone OS 18_7 like Mac OS X) AppleWebKit/605.1.15 (KHTML, like Gecko) Version/26.2 Mobile/15E148 Safari/604.1","390","699","300","","null","<div style=""font-size:60px;"">+</div>","null","fixation","","","","","","","","","","","",""
"html-button-response","29","36005","0.0-2.0-1.13","9005","2","pre","1","afternoon","2026-02-05","2026-02-17","2026-02-05T22:08:56.427Z","Mozilla/5.0 (iPhone; CPU iPhone OS 18_7 like Mac OS X) AppleWebKit/605.1.15 (KHTML, like Gecko) Version/26.2 Mobile/15E148 Safari/604.1","390","699","300","","604","<div class=""prompt"" style=""font-size:24px; margin-bottom:20px;"">Which word describes you more?</div>","0","pairing","14","seeker","excellent","PosPos","15","49","positive","positive","34","seeker","left","true"
"html-keyboard-response","30","36808","0.0-2.0-0.14","9005","2","pre","1","afternoon","2026-02-05","2026-02-17","2026-02-05T22:08:56.427Z","Mozilla/5.0 (iPhone; CPU iPhone OS 18_7 like Mac OS X) AppleWebKit/605.1.15 (KHTML, like Gecko) Version/26.2 Mobile/15E148 Safari/604.1","390","699","300","","null","<div style=""font-size:60px;"">+</div>","null","fixation","","","","","","","","","","","",""
"html-button-response","31","37552","0.0-2.0-1.14","9005","2","pre","1","afternoon","2026-02-05","2026-02-17","2026-02-05T22:08:56.427Z","Mozilla/5.0 (iPhone; CPU iPhone OS 18_7 like Mac OS X) AppleWebKit/605.1.15 (KHTML, like Gecko) Version/26.2 Mobile/15E148 Safari/604.1","390","699","300","","741","<div class=""prompt"" style=""font-size:24px; margin-bottom:20px;"">Which word describes you more?</div>","1","pairing","15","worthless","seeker","PosNeg","69","15","negative","positive","54","seeker","right","true"
"html-keyboard-response","32","38355","0.0-2.0-0.15","9005","2","pre","1","afternoon","2026-02-05","2026-02-17","2026-02-05T22:08:56.427Z","Mozilla/5.0 (iPhone; CPU iPhone OS 18_7 like Mac OS X) AppleWebKit/605.1.15 (KHTML, like Gecko) Version/26.2 Mobile/15E148 Safari/604.1","390","699","300","","null","<div style=""font-size:60px;"">+</div>","null","fixation","","","","","","","","","","","",""
"html-button-response","33","38980","0.0-2.0-1.15","9005","2","pre","1","afternoon","2026-02-05","2026-02-17","2026-02-05T22:08:56.427Z","Mozilla/5.0 (iPhone; CPU iPhone OS 18_7 like Mac OS X) AppleWebKit/605.1.15 (KHTML, like Gecko) Version/26.2 Mobile/15E148 Safari/604.1","390","699","300","","623","<div class=""prompt"" style=""font-size:24px; margin-bottom:20px;"">Which word describes you more?</div>","0","pairing","16","satisfied","witty","PosPos","15","69","positive","positive","54","satisfied","left","true"
"html-keyboard-response","34","39783","0.0-2.0-0.16","9005","2","pre","1","afternoon","2026-02-05","2026-02-17","2026-02-05T22:08:56.427Z","Mozilla/5.0 (iPhone; CPU iPhone OS 18_7 like Mac OS X) AppleWebKit/605.1.15 (KHTML, like Gecko) Version/26.2 Mobile/15E148 Safari/604.1","390","699","300","","null","<div style=""font-size:60px;"">+</div>","null","fixation","","","","","","","","","","","",""
"html-button-response","35","40317","0.0-2.0-1.16","9005","2","pre","1","afternoon","2026-02-05","2026-02-17","2026-02-05T22:08:56.427Z","Mozilla/5.0 (iPhone; CPU iPhone OS 18_7 like Mac OS X) AppleWebKit/605.1.15 (KHTML, like Gecko) Version/26.2 Mobile/15E148 Safari/604.1","390","699","300","","531","<div class=""prompt"" style=""font-size:24px; margin-bottom:20px;"">Which word describes you more?</div>","1","pairing","17","awkward","phony","NegNeg","24","49","negative","negative","25","phony","right","true"
"html-keyboard-response","36","41120","0.0-2.0-0.17","9005","2","pre","1","afternoon","2026-02-05","2026-02-17","2026-02-05T22:08:56.427Z","Mozilla/5.0 (iPhone; CPU iPhone OS 18_7 like Mac OS X) AppleWebKit/605.1.15 (KHTML, like Gecko) Version/26.2 Mobile/15E148 Safari/604.1","390","699","300","","null","<div style=""font-size:60px;"">+</div>","null","fixation","","","","","","","","","","","",""
"html-button-response","37","41666","0.0-2.0-1.17","9005","2","pre","1","afternoon","2026-02-05","2026-02-17","2026-02-05T22:08:56.427Z","Mozilla/5.0 (iPhone; CPU iPhone OS 18_7 like Mac OS X) AppleWebKit/605.1.15 (KHTML, like Gecko) Version/26.2 Mobile/15E148 Safari/604.1","390","699","300","","543","<div class=""prompt"" style=""font-size:24px; margin-bottom:20px;"">Which word describes you more?</div>","0","pairing","18","bully","helpless","NegNeg","69","15","negative","negative","54","bully","left","true"
"html-keyboard-response","38","42468","0.0-2.0-0.18","9005","2","pre","1","afternoon","2026-02-05","2026-02-17","2026-02-05T22:08:56.427Z","Mozilla/5.0 (iPhone; CPU iPhone OS 18_7 like Mac OS X) AppleWebKit/605.1.15 (KHTML, like Gecko) Version/26.2 Mobile/15E148 Safari/604.1","390","699","300","","null","<div style=""font-size:60px;"">+</div>","null","fixation","","","","","","","","","","","",""
"html-button-response","39","42833","0.0-2.0-1.18","9005","2","pre","1","afternoon","2026-02-05","2026-02-17","2026-02-05T22:08:56.427Z","Mozilla/5.0 (iPhone; CPU iPhone OS 18_7 like Mac OS X) AppleWebKit/605.1.15 (KHTML, like Gecko) Version/26.2 Mobile/15E148 Safari/604.1","390","699","300","","362","<div class=""prompt"" style=""font-size:24px; margin-bottom:20px;"">Which word describes you more?</div>","1","pairing","19","incapable","annoying","NegNeg","15","49","negative","negative","34","annoying","right","true"
"html-keyboard-response","40","43635","0.0-2.0-0.19","9005","2","pre","1","afternoon","2026-02-05","2026-02-17","2026-02-05T22:08:56.427Z","Mozilla/5.0 (iPhone; CPU iPhone OS 18_7 like Mac OS X) AppleWebKit/605.1.15 (KHTML, like Gecko) Version/26.2 Mobile/15E148 Safari/604.1","390","699","300","","null","<div style=""font-size:60px;"">+</div>","null","fixation","","","","","","","","","","","",""
"html-button-response","41","44127","0.0-2.0-1.19","9005","2","pre","1","afternoon","2026-02-05","2026-02-17","2026-02-05T22:08:56.427Z","Mozilla/5.0 (iPhone; CPU iPhone OS 18_7 like Mac OS X) AppleWebKit/605.1.15 (KHTML, like Gecko) Version/26.2 Mobile/15E148 Safari/604.1","390","699","300","","489","<div class=""prompt"" style=""font-size:24px; margin-bottom:20px;"">Which word describes you more?</div>","1","pairing","20","optimistic","turnoff","PosNeg","69","49","positive","negative","20","turnoff","right","true"
"html-keyboard-response","42","44929","0.0-2.0-0.20","9005","2","pre","1","afternoon","2026-02-05","2026-02-17","2026-02-05T22:08:56.427Z","Mozilla/5.0 (iPhone; CPU iPhone OS 18_7 like Mac OS X) AppleWebKit/605.1.15 (KHTML, like Gecko) Version/26.2 Mobile/15E148 Safari/604.1","390","699","300","","null","<div style=""font-size:60px;"">+</div>","null","fixation","","","","","","","","","","","",""
"html-button-response","43","45347","0.0-2.0-1.20","9005","2","pre","1","afternoon","2026-02-05","2026-02-17","2026-02-05T22:08:56.427Z","Mozilla/5.0 (iPhone; CPU iPhone OS 18_7 like Mac OS X) AppleWebKit/605.1.15 (KHTML, like Gecko) Version/26.2 Mobile/15E148 Safari/604.1","390","699","300","","416","<div class=""prompt"" style=""font-size:24px; margin-bottom:20px;"">Which word describes you more?</div>","0","pairing","21","courteous","ambitious","PosPos","24","15","positive","positive","9","courteous","left","true"
"html-keyboard-response","44","46149","0.0-2.0-0.21","9005","2","pre","1","afternoon","2026-02-05","2026-02-17","2026-02-05T22:08:56.427Z","Mozilla/5.0 (iPhone; CPU iPhone OS 18_7 like Mac OS X) AppleWebKit/605.1.15 (KHTML, like Gecko) Version/26.2 Mobile/15E148 Safari/604.1","390","699","300","","null","<div style=""font-size:60px;"">+</div>","null","fixation","","","","","","","","","","","",""
"html-button-response","45","46948","0.0-2.0-1.21","9005","2","pre","1","afternoon","2026-02-05","2026-02-17","2026-02-05T22:08:56.427Z","Mozilla/5.0 (iPhone; CPU iPhone OS 18_7 like Mac OS X) AppleWebKit/605.1.15 (KHTML, like Gecko) Version/26.2 Mobile/15E148 Safari/604.1","390","699","300","","796","<div class=""prompt"" style=""font-size:24px; margin-bottom:20px;"">Which word describes you more?</div>","1","pairing","22","proficient","seeker","PosPos","49","15","positive","positive","34","seeker","right","true"
"html-keyboard-response","46","47750","0.0-2.0-0.22","9005","2","pre","1","afternoon","2026-02-05","2026-02-17","2026-02-05T22:08:56.427Z","Mozilla/5.0 (iPhone; CPU iPhone OS 18_7 like Mac OS X) AppleWebKit/605.1.15 (KHTML, like Gecko) Version/26.2 Mobile/15E148 Safari/604.1","390","699","300","","null","<div style=""font-size:60px;"">+</div>","null","fixation","","","","","","","","","","","",""
"html-button-response","47","48434","0.0-2.0-1.22","9005","2","pre","1","afternoon","2026-02-05","2026-02-17","2026-02-05T22:08:56.427Z","Mozilla/5.0 (iPhone; CPU iPhone OS 18_7 like Mac OS X) AppleWebKit/605.1.15 (KHTML, like Gecko) Version/26.2 Mobile/15E148 Safari/604.1","390","699","300","","680","<div class=""prompt"" style=""font-size:24px; margin-bottom:20px;"">Which word describes you more?</div>","0","pairing","23","heartbroken","lucky","PosNeg","24","49","negative","positive","25","heartbroken","left","true"
"html-keyboard-response","48","49236","0.0-2.0-0.23","9005","2","pre","1","afternoon","2026-02-05","2026-02-17","2026-02-05T22:08:56.427Z","Mozilla/5.0 (iPhone; CPU iPhone OS 18_7 like Mac OS X) AppleWebKit/605.1.15 (KHTML, like Gecko) Version/26.2 Mobile/15E148 Safari/604.1","390","699","300","","null","<div style=""font-size:60px;"">+</div>","null","fixation","","","","","","","","","","","",""
"html-button-response","49","49922","0.0-2.0-1.23","9005","2","pre","1","afternoon","2026-02-05","2026-02-17","2026-02-05T22:08:56.427Z","Mozilla/5.0 (iPhone; CPU iPhone OS 18_7 like Mac OS X) AppleWebKit/605.1.15 (KHTML, like Gecko) Version/26.2 Mobile/15E148 Safari/604.1","390","699","300","","685","<div class=""prompt"" style=""font-size:24px; margin-bottom:20px;"">Which word describes you more?</div>","1","pairing","24","devoted","heartbroken","PosNeg","15","24","positive","negative","9","heartbroken","right","true"
"instructions","50","53397","0.0-3.0","9005","2","pre","1","afternoon","2026-02-05","2026-02-17","2026-02-05T22:08:56.427Z","Mozilla/5.0 (iPhone; CPU iPhone OS 18_7 like Mac OS X) AppleWebKit/605.1.15 (KHTML, like Gecko) Version/26.2 Mobile/15E148 Safari/604.1","390","699","300","[{""page_index"":0,""viewing_time"":3471}]","3472","","","","","","","","","","","","","","",""
