"trial_type","trial_index","time_elapsed","internal_node_id","PUNS_ID","session_number","session_phase","session_day","session_slot","ema_start_date","ema_post_start_date","experiment_start","browser","screen_width","screen_height","timezone_offset","view_history","rt","stimulus","response","which_experiment_phase","trial_number","left_word","right_word","valence","left_base_rating","right_base_rating","left_valence","right_valence","abs_diff","participant_response","chosen_side","valid_response"
"pavlovia","0","1503","0.0-0.0","1080","24","pre","8","evening","2026-05-20","2026-06-03","2026-05-28T01:41:42.525Z","Mozilla/5.0 (iPhone; CPU iPhone OS 18_5 like Mac OS X) AppleWebKit/605.1.15 (KHTML, like Gecko) Mobile/15E148","343","597","240","","","","","","","","","","","","","","","","",""
"instructions","1","5527","0.0-1.0","1080","24","pre","8","evening","2026-05-20","2026-06-03","2026-05-28T01:41:42.525Z","Mozilla/5.0 (iPhone; CPU iPhone OS 18_5 like Mac OS X) AppleWebKit/605.1.15 (KHTML, like Gecko) Mobile/15E148","343","597","240","[{""page_index"":0,""viewing_time"":768},{""page_index"":1,""viewing_time"":529},{""page_index"":2,""viewing_time"":2172},{""page_index"":3,""viewing_time"":547}]","4016","","","","","","","","","","","","","","",""
"html-keyboard-response","2","6332","0.0-2.0-0.0","1080","24","pre","8","evening","2026-05-20","2026-06-03","2026-05-28T01:41:42.525Z","Mozilla/5.0 (iPhone; CPU iPhone OS 18_5 like Mac OS X) AppleWebKit/605.1.15 (KHTML, like Gecko) Mobile/15E148","343","597","240","","null","<div style=""font-size:60px;"">+</div>","null","fixation","","","","","","","","","","","",""
"html-button-response","3","7214","0.0-2.0-1.0","1080","24","pre","8","evening","2026-05-20","2026-06-03","2026-05-28T01:41:42.525Z","Mozilla/5.0 (iPhone; CPU iPhone OS 18_5 like Mac OS X) AppleWebKit/605.1.15 (KHTML, like Gecko) Mobile/15E148","343","597","240","","875","<div class=""prompt"" style=""font-size:24px; margin-bottom:20px;"">Which word describes you more?</div>","0","pairing","1","anxious","degenerate","NegNeg","90","19","negative","negative","71","anxious","left","true"
"html-keyboard-response","4","8017","0.0-2.0-0.1","1080","24","pre","8","evening","2026-05-20","2026-06-03","2026-05-28T01:41:42.525Z","Mozilla/5.0 (iPhone; CPU iPhone OS 18_5 like Mac OS X) AppleWebKit/605.1.15 (KHTML, like Gecko) Mobile/15E148","343","597","240","","null","<div style=""font-size:60px;"">+</div>","null","fixation","","","","","","","","","","","",""
"html-button-response","5","9831","0.0-2.0-1.1","1080","24","pre","8","evening","2026-05-20","2026-06-03","2026-05-28T01:41:42.525Z","Mozilla/5.0 (iPhone; CPU iPhone OS 18_5 like Mac OS X) AppleWebKit/605.1.15 (KHTML, like Gecko) Mobile/15E148","343","597","240","","1812","<div class=""prompt"" style=""font-size:24px; margin-bottom:20px;"">Which word describes you more?</div>","1","pairing","2","appealing","garbage","PosNeg","47","14","positive","negative","33","garbage","right","true"
"html-keyboard-response","6","10634","0.0-2.0-0.2","1080","24","pre","8","evening","2026-05-20","2026-06-03","2026-05-28T01:41:42.525Z","Mozilla/5.0 (iPhone; CPU iPhone OS 18_5 like Mac OS X) AppleWebKit/605.1.15 (KHTML, like Gecko) Mobile/15E148","343","597","240","","null","<div style=""font-size:60px;"">+</div>","null","fixation","","","","","","","","","","","",""
"html-button-response","7","11781","0.0-2.0-1.2","1080","24","pre","8","evening","2026-05-20","2026-06-03","2026-05-28T01:41:42.525Z","Mozilla/5.0 (iPhone; CPU iPhone OS 18_5 like Mac OS X) AppleWebKit/605.1.15 (KHTML, like Gecko) Mobile/15E148","343","597","240","","1146","<div class=""prompt"" style=""font-size:24px; margin-bottom:20px;"">Which word describes you more?</div>","0","pairing","3","seeker","failure","PosNeg","71","20","positive","negative","51","seeker","left","true"
"html-keyboard-response","8","12585","0.0-2.0-0.3","1080","24","pre","8","evening","2026-05-20","2026-06-03","2026-05-28T01:41:42.525Z","Mozilla/5.0 (iPhone; CPU iPhone OS 18_5 like Mac OS X) AppleWebKit/605.1.15 (KHTML, like Gecko) Mobile/15E148","343","597","240","","null","<div style=""font-size:60px;"">+</div>","null","fixation","","","","","","","","","","","",""
"html-button-response","9","13783","0.0-2.0-1.3","1080","24","pre","8","evening","2026-05-20","2026-06-03","2026-05-28T01:41:42.525Z","Mozilla/5.0 (iPhone; CPU iPhone OS 18_5 like Mac OS X) AppleWebKit/605.1.15 (KHTML, like Gecko) Mobile/15E148","343","597","240","","1195","<div class=""prompt"" style=""font-size:24px; margin-bottom:20px;"">Which word describes you more?</div>","1","pairing","4","violent","valued","PosNeg","0","84","negative","positive","84","valued","right","true"
"html-keyboard-response","10","14586","0.0-2.0-0.4","1080","24","pre","8","evening","2026-05-20","2026-06-03","2026-05-28T01:41:42.525Z","Mozilla/5.0 (iPhone; CPU iPhone OS 18_5 like Mac OS X) AppleWebKit/605.1.15 (KHTML, like Gecko) Mobile/15E148","343","597","240","","null","<div style=""font-size:60px;"">+</div>","null","fixation","","","","","","","","","","","",""
"html-button-response","11","15401","0.0-2.0-1.4","1080","24","pre","8","evening","2026-05-20","2026-06-03","2026-05-28T01:41:42.525Z","Mozilla/5.0 (iPhone; CPU iPhone OS 18_5 like Mac OS X) AppleWebKit/605.1.15 (KHTML, like Gecko) Mobile/15E148","343","597","240","","813","<div class=""prompt"" style=""font-size:24px; margin-bottom:20px;"">Which word describes you more?</div>","0","pairing","5","insecure","expert","PosNeg","84","12","negative","positive","72","insecure","left","true"
"html-keyboard-response","12","16203","0.0-2.0-0.5","1080","24","pre","8","evening","2026-05-20","2026-06-03","2026-05-28T01:41:42.525Z","Mozilla/5.0 (iPhone; CPU iPhone OS 18_5 like Mac OS X) AppleWebKit/605.1.15 (KHTML, like Gecko) Mobile/15E148","343","597","240","","null","<div style=""font-size:60px;"">+</div>","null","fixation","","","","","","","","","","","",""
"html-button-response","13","17252","0.0-2.0-1.5","1080","24","pre","8","evening","2026-05-20","2026-06-03","2026-05-28T01:41:42.525Z","Mozilla/5.0 (iPhone; CPU iPhone OS 18_5 like Mac OS X) AppleWebKit/605.1.15 (KHTML, like Gecko) Mobile/15E148","343","597","240","","1048","<div class=""prompt"" style=""font-size:24px; margin-bottom:20px;"">Which word describes you more?</div>","0","pairing","6","negligent","visionary","PosNeg","33","34","negative","positive","1","negligent","left","true"
"html-keyboard-response","14","18055","0.0-2.0-0.6","1080","24","pre","8","evening","2026-05-20","2026-06-03","2026-05-28T01:41:42.525Z","Mozilla/5.0 (iPhone; CPU iPhone OS 18_5 like Mac OS X) AppleWebKit/605.1.15 (KHTML, like Gecko) Mobile/15E148","343","597","240","","null","<div style=""font-size:60px;"">+</div>","null","fixation","","","","","","","","","","","",""
"html-button-response","15","18988","0.0-2.0-1.6","1080","24","pre","8","evening","2026-05-20","2026-06-03","2026-05-28T01:41:42.525Z","Mozilla/5.0 (iPhone; CPU iPhone OS 18_5 like Mac OS X) AppleWebKit/605.1.15 (KHTML, like Gecko) Mobile/15E148","343","597","240","","931","<div class=""prompt"" style=""font-size:24px; margin-bottom:20px;"">Which word describes you more?</div>","0","pairing","7","coward","lifeless","NegNeg","35","3","negative","negative","32","coward","left","true"
"html-keyboard-response","16","19792","0.0-2.0-0.7","1080","24","pre","8","evening","2026-05-20","2026-06-03","2026-05-28T01:41:42.525Z","Mozilla/5.0 (iPhone; CPU iPhone OS 18_5 like Mac OS X) AppleWebKit/605.1.15 (KHTML, like Gecko) Mobile/15E148","343","597","240","","null","<div style=""font-size:60px;"">+</div>","null","fixation","","","","","","","","","","","",""
"html-button-response","17","21907","0.0-2.0-1.7","1080","24","pre","8","evening","2026-05-20","2026-06-03","2026-05-28T01:41:42.525Z","Mozilla/5.0 (iPhone; CPU iPhone OS 18_5 like Mac OS X) AppleWebKit/605.1.15 (KHTML, like Gecko) Mobile/15E148","343","597","240","","2112","<div class=""prompt"" style=""font-size:24px; margin-bottom:20px;"">Which word describes you more?</div>","1","pairing","8","disastrous","failure","NegNeg","13","20","negative","negative","7","failure","right","true"
"html-keyboard-response","18","22709","0.0-2.0-0.8","1080","24","pre","8","evening","2026-05-20","2026-06-03","2026-05-28T01:41:42.525Z","Mozilla/5.0 (iPhone; CPU iPhone OS 18_5 like Mac OS X) AppleWebKit/605.1.15 (KHTML, like Gecko) Mobile/15E148","343","597","240","","null","<div style=""font-size:60px;"">+</div>","null","fixation","","","","","","","","","","","",""
"html-button-response","19","23923","0.0-2.0-1.8","1080","24","pre","8","evening","2026-05-20","2026-06-03","2026-05-28T01:41:42.525Z","Mozilla/5.0 (iPhone; CPU iPhone OS 18_5 like Mac OS X) AppleWebKit/605.1.15 (KHTML, like Gecko) Mobile/15E148","343","597","240","","1212","<div class=""prompt"" style=""font-size:24px; margin-bottom:20px;"">Which word describes you more?</div>","1","pairing","9","alone","anxious","NegNeg","0","90","negative","negative","90","anxious","right","true"
"html-keyboard-response","20","24725","0.0-2.0-0.9","1080","24","pre","8","evening","2026-05-20","2026-06-03","2026-05-28T01:41:42.525Z","Mozilla/5.0 (iPhone; CPU iPhone OS 18_5 like Mac OS X) AppleWebKit/605.1.15 (KHTML, like Gecko) Mobile/15E148","343","597","240","","null","<div style=""font-size:60px;"">+</div>","null","fixation","","","","","","","","","","","",""
"html-button-response","21","25993","0.0-2.0-1.9","1080","24","pre","8","evening","2026-05-20","2026-06-03","2026-05-28T01:41:42.525Z","Mozilla/5.0 (iPhone; CPU iPhone OS 18_5 like Mac OS X) AppleWebKit/605.1.15 (KHTML, like Gecko) Mobile/15E148","343","597","240","","1265","<div class=""prompt"" style=""font-size:24px; margin-bottom:20px;"">Which word describes you more?</div>","1","pairing","10","spirited","easygoing","PosPos","58","91","positive","positive","33","easygoing","right","true"
"html-keyboard-response","22","26795","0.0-2.0-0.10","1080","24","pre","8","evening","2026-05-20","2026-06-03","2026-05-28T01:41:42.525Z","Mozilla/5.0 (iPhone; CPU iPhone OS 18_5 like Mac OS X) AppleWebKit/605.1.15 (KHTML, like Gecko) Mobile/15E148","343","597","240","","null","<div style=""font-size:60px;"">+</div>","null","fixation","","","","","","","","","","","",""
"html-button-response","23","29396","0.0-2.0-1.10","1080","24","pre","8","evening","2026-05-20","2026-06-03","2026-05-28T01:41:42.525Z","Mozilla/5.0 (iPhone; CPU iPhone OS 18_5 like Mac OS X) AppleWebKit/605.1.15 (KHTML, like Gecko) Mobile/15E148","343","597","240","","2598","<div class=""prompt"" style=""font-size:24px; margin-bottom:20px;"">Which word describes you more?</div>","0","pairing","11","grateful","flawless","PosPos","100","20","positive","positive","80","grateful","left","true"
"html-keyboard-response","24","30198","0.0-2.0-0.11","1080","24","pre","8","evening","2026-05-20","2026-06-03","2026-05-28T01:41:42.525Z","Mozilla/5.0 (iPhone; CPU iPhone OS 18_5 like Mac OS X) AppleWebKit/605.1.15 (KHTML, like Gecko) Mobile/15E148","343","597","240","","null","<div style=""font-size:60px;"">+</div>","null","fixation","","","","","","","","","","","",""
"html-button-response","25","31227","0.0-2.0-1.11","1080","24","pre","8","evening","2026-05-20","2026-06-03","2026-05-28T01:41:42.525Z","Mozilla/5.0 (iPhone; CPU iPhone OS 18_5 like Mac OS X) AppleWebKit/605.1.15 (KHTML, like Gecko) Mobile/15E148","343","597","240","","1028","<div class=""prompt"" style=""font-size:24px; margin-bottom:20px;"">Which word describes you more?</div>","1","pairing","12","asset","awkward","PosNeg","53","65","positive","negative","12","awkward","right","true"
"html-keyboard-response","26","32030","0.0-2.0-0.12","1080","24","pre","8","evening","2026-05-20","2026-06-03","2026-05-28T01:41:42.525Z","Mozilla/5.0 (iPhone; CPU iPhone OS 18_5 like Mac OS X) AppleWebKit/605.1.15 (KHTML, like Gecko) Mobile/15E148","343","597","240","","null","<div style=""font-size:60px;"">+</div>","null","fixation","","","","","","","","","","","",""
"html-button-response","27","32982","0.0-2.0-1.12","1080","24","pre","8","evening","2026-05-20","2026-06-03","2026-05-28T01:41:42.525Z","Mozilla/5.0 (iPhone; CPU iPhone OS 18_5 like Mac OS X) AppleWebKit/605.1.15 (KHTML, like Gecko) Mobile/15E148","343","597","240","","947","<div class=""prompt"" style=""font-size:24px; margin-bottom:20px;"">Which word describes you more?</div>","1","pairing","13","alluring","healthy","PosPos","22","89","positive","positive","67","healthy","right","true"
"html-keyboard-response","28","33787","0.0-2.0-0.13","1080","24","pre","8","evening","2026-05-20","2026-06-03","2026-05-28T01:41:42.525Z","Mozilla/5.0 (iPhone; CPU iPhone OS 18_5 like Mac OS X) AppleWebKit/605.1.15 (KHTML, like Gecko) Mobile/15E148","343","597","240","","null","<div style=""font-size:60px;"">+</div>","null","fixation","","","","","","","","","","","",""
"html-button-response","29","34649","0.0-2.0-1.13","1080","24","pre","8","evening","2026-05-20","2026-06-03","2026-05-28T01:41:42.525Z","Mozilla/5.0 (iPhone; CPU iPhone OS 18_5 like Mac OS X) AppleWebKit/605.1.15 (KHTML, like Gecko) Mobile/15E148","343","597","240","","860","<div class=""prompt"" style=""font-size:24px; margin-bottom:20px;"">Which word describes you more?</div>","0","pairing","14","smiley","hopeless","PosNeg","84","17","positive","negative","67","smiley","left","true"
"html-keyboard-response","30","35451","0.0-2.0-0.14","1080","24","pre","8","evening","2026-05-20","2026-06-03","2026-05-28T01:41:42.525Z","Mozilla/5.0 (iPhone; CPU iPhone OS 18_5 like Mac OS X) AppleWebKit/605.1.15 (KHTML, like Gecko) Mobile/15E148","343","597","240","","null","<div style=""font-size:60px;"">+</div>","null","fixation","","","","","","","","","","","",""
"html-button-response","31","36401","0.0-2.0-1.14","1080","24","pre","8","evening","2026-05-20","2026-06-03","2026-05-28T01:41:42.525Z","Mozilla/5.0 (iPhone; CPU iPhone OS 18_5 like Mac OS X) AppleWebKit/605.1.15 (KHTML, like Gecko) Mobile/15E148","343","597","240","","947","<div class=""prompt"" style=""font-size:24px; margin-bottom:20px;"">Which word describes you more?</div>","0","pairing","15","hopeful","enthusiastic","PosPos","94","49","positive","positive","45","hopeful","left","true"
"html-keyboard-response","32","37204","0.0-2.0-0.15","1080","24","pre","8","evening","2026-05-20","2026-06-03","2026-05-28T01:41:42.525Z","Mozilla/5.0 (iPhone; CPU iPhone OS 18_5 like Mac OS X) AppleWebKit/605.1.15 (KHTML, like Gecko) Mobile/15E148","343","597","240","","null","<div style=""font-size:60px;"">+</div>","null","fixation","","","","","","","","","","","",""
"html-button-response","33","38186","0.0-2.0-1.15","1080","24","pre","8","evening","2026-05-20","2026-06-03","2026-05-28T01:41:42.525Z","Mozilla/5.0 (iPhone; CPU iPhone OS 18_5 like Mac OS X) AppleWebKit/605.1.15 (KHTML, like Gecko) Mobile/15E148","343","597","240","","980","<div class=""prompt"" style=""font-size:24px; margin-bottom:20px;"">Which word describes you more?</div>","1","pairing","16","safe","spontaneous","PosPos","95","69","positive","positive","26","spontaneous","right","true"
"html-keyboard-response","34","38988","0.0-2.0-0.16","1080","24","pre","8","evening","2026-05-20","2026-06-03","2026-05-28T01:41:42.525Z","Mozilla/5.0 (iPhone; CPU iPhone OS 18_5 like Mac OS X) AppleWebKit/605.1.15 (KHTML, like Gecko) Mobile/15E148","343","597","240","","null","<div style=""font-size:60px;"">+</div>","null","fixation","","","","","","","","","","","",""
"html-button-response","35","40001","0.0-2.0-1.16","1080","24","pre","8","evening","2026-05-20","2026-06-03","2026-05-28T01:41:42.525Z","Mozilla/5.0 (iPhone; CPU iPhone OS 18_5 like Mac OS X) AppleWebKit/605.1.15 (KHTML, like Gecko) Mobile/15E148","343","597","240","","1011","<div class=""prompt"" style=""font-size:24px; margin-bottom:20px;"">Which word describes you more?</div>","1","pairing","17","shameful","insecure","NegNeg","27","84","negative","negative","57","insecure","right","true"
"html-keyboard-response","36","40803","0.0-2.0-0.17","1080","24","pre","8","evening","2026-05-20","2026-06-03","2026-05-28T01:41:42.525Z","Mozilla/5.0 (iPhone; CPU iPhone OS 18_5 like Mac OS X) AppleWebKit/605.1.15 (KHTML, like Gecko) Mobile/15E148","343","597","240","","null","<div style=""font-size:60px;"">+</div>","null","fixation","","","","","","","","","","","",""
"html-button-response","37","41688","0.0-2.0-1.17","1080","24","pre","8","evening","2026-05-20","2026-06-03","2026-05-28T01:41:42.525Z","Mozilla/5.0 (iPhone; CPU iPhone OS 18_5 like Mac OS X) AppleWebKit/605.1.15 (KHTML, like Gecko) Mobile/15E148","343","597","240","","882","<div class=""prompt"" style=""font-size:24px; margin-bottom:20px;"">Which word describes you more?</div>","1","pairing","18","legendary","anxious","PosNeg","14","90","positive","negative","76","anxious","right","true"
"html-keyboard-response","38","42490","0.0-2.0-0.18","1080","24","pre","8","evening","2026-05-20","2026-06-03","2026-05-28T01:41:42.525Z","Mozilla/5.0 (iPhone; CPU iPhone OS 18_5 like Mac OS X) AppleWebKit/605.1.15 (KHTML, like Gecko) Mobile/15E148","343","597","240","","null","<div style=""font-size:60px;"">+</div>","null","fixation","","","","","","","","","","","",""
"html-button-response","39","43389","0.0-2.0-1.18","1080","24","pre","8","evening","2026-05-20","2026-06-03","2026-05-28T01:41:42.525Z","Mozilla/5.0 (iPhone; CPU iPhone OS 18_5 like Mac OS X) AppleWebKit/605.1.15 (KHTML, like Gecko) Mobile/15E148","343","597","240","","898","<div class=""prompt"" style=""font-size:24px; margin-bottom:20px;"">Which word describes you more?</div>","1","pairing","19","esteemed","safe","PosPos","36","95","positive","positive","59","safe","right","true"
"html-keyboard-response","40","44192","0.0-2.0-0.19","1080","24","pre","8","evening","2026-05-20","2026-06-03","2026-05-28T01:41:42.525Z","Mozilla/5.0 (iPhone; CPU iPhone OS 18_5 like Mac OS X) AppleWebKit/605.1.15 (KHTML, like Gecko) Mobile/15E148","343","597","240","","null","<div style=""font-size:60px;"">+</div>","null","fixation","","","","","","","","","","","",""
"html-button-response","41","45241","0.0-2.0-1.19","1080","24","pre","8","evening","2026-05-20","2026-06-03","2026-05-28T01:41:42.525Z","Mozilla/5.0 (iPhone; CPU iPhone OS 18_5 like Mac OS X) AppleWebKit/605.1.15 (KHTML, like Gecko) Mobile/15E148","343","597","240","","1048","<div class=""prompt"" style=""font-size:24px; margin-bottom:20px;"">Which word describes you more?</div>","0","pairing","20","incompetent","unwanted","NegNeg","60","0","negative","negative","60","incompetent","left","true"
"html-keyboard-response","42","46044","0.0-2.0-0.20","1080","24","pre","8","evening","2026-05-20","2026-06-03","2026-05-28T01:41:42.525Z","Mozilla/5.0 (iPhone; CPU iPhone OS 18_5 like Mac OS X) AppleWebKit/605.1.15 (KHTML, like Gecko) Mobile/15E148","343","597","240","","null","<div style=""font-size:60px;"">+</div>","null","fixation","","","","","","","","","","","",""
"html-button-response","43","46991","0.0-2.0-1.20","1080","24","pre","8","evening","2026-05-20","2026-06-03","2026-05-28T01:41:42.525Z","Mozilla/5.0 (iPhone; CPU iPhone OS 18_5 like Mac OS X) AppleWebKit/605.1.15 (KHTML, like Gecko) Mobile/15E148","343","597","240","","946","<div class=""prompt"" style=""font-size:24px; margin-bottom:20px;"">Which word describes you more?</div>","1","pairing","21","rude","champion","PosNeg","32","30","negative","positive","2","champion","right","true"
"html-keyboard-response","44","47794","0.0-2.0-0.21","1080","24","pre","8","evening","2026-05-20","2026-06-03","2026-05-28T01:41:42.525Z","Mozilla/5.0 (iPhone; CPU iPhone OS 18_5 like Mac OS X) AppleWebKit/605.1.15 (KHTML, like Gecko) Mobile/15E148","343","597","240","","null","<div style=""font-size:60px;"">+</div>","null","fixation","","","","","","","","","","","",""
"html-button-response","45","48626","0.0-2.0-1.21","1080","24","pre","8","evening","2026-05-20","2026-06-03","2026-05-28T01:41:42.525Z","Mozilla/5.0 (iPhone; CPU iPhone OS 18_5 like Mac OS X) AppleWebKit/605.1.15 (KHTML, like Gecko) Mobile/15E148","343","597","240","","830","<div class=""prompt"" style=""font-size:24px; margin-bottom:20px;"">Which word describes you more?</div>","0","pairing","22","insecure","eloquent","PosNeg","84","50","negative","positive","34","insecure","left","true"
"html-keyboard-response","46","49429","0.0-2.0-0.22","1080","24","pre","8","evening","2026-05-20","2026-06-03","2026-05-28T01:41:42.525Z","Mozilla/5.0 (iPhone; CPU iPhone OS 18_5 like Mac OS X) AppleWebKit/605.1.15 (KHTML, like Gecko) Mobile/15E148","343","597","240","","null","<div style=""font-size:60px;"">+</div>","null","fixation","","","","","","","","","","","",""
"html-button-response","47","50327","0.0-2.0-1.22","1080","24","pre","8","evening","2026-05-20","2026-06-03","2026-05-28T01:41:42.525Z","Mozilla/5.0 (iPhone; CPU iPhone OS 18_5 like Mac OS X) AppleWebKit/605.1.15 (KHTML, like Gecko) Mobile/15E148","343","597","240","","896","<div class=""prompt"" style=""font-size:24px; margin-bottom:20px;"">Which word describes you more?</div>","1","pairing","23","legendary","sloppy","PosNeg","14","58","positive","negative","44","sloppy","right","true"
"html-keyboard-response","48","51130","0.0-2.0-0.23","1080","24","pre","8","evening","2026-05-20","2026-06-03","2026-05-28T01:41:42.525Z","Mozilla/5.0 (iPhone; CPU iPhone OS 18_5 like Mac OS X) AppleWebKit/605.1.15 (KHTML, like Gecko) Mobile/15E148","343","597","240","","null","<div style=""font-size:60px;"">+</div>","null","fixation","","","","","","","","","","","",""
"html-button-response","49","52229","0.0-2.0-1.23","1080","24","pre","8","evening","2026-05-20","2026-06-03","2026-05-28T01:41:42.525Z","Mozilla/5.0 (iPhone; CPU iPhone OS 18_5 like Mac OS X) AppleWebKit/605.1.15 (KHTML, like Gecko) Mobile/15E148","343","597","240","","1097","<div class=""prompt"" style=""font-size:24px; margin-bottom:20px;"">Which word describes you more?</div>","0","pairing","24","untrustworthy","idealistic","PosNeg","9","73","negative","positive","64","untrustworthy","left","true"
"instructions","50","52979","0.0-3.0","1080","24","pre","8","evening","2026-05-20","2026-06-03","2026-05-28T01:41:42.525Z","Mozilla/5.0 (iPhone; CPU iPhone OS 18_5 like Mac OS X) AppleWebKit/605.1.15 (KHTML, like Gecko) Mobile/15E148","343","597","240","[{""page_index"":0,""viewing_time"":748}]","749","","","","","","","","","","","","","","",""
