"trial_type","trial_index","time_elapsed","internal_node_id","PUNS_ID","session_number","session_phase","session_day","session_slot","ema_start_date","ema_post_start_date","experiment_start","browser","screen_width","screen_height","timezone_offset","view_history","rt","stimulus","response","which_experiment_phase","trial_number","left_word","right_word","valence","left_base_rating","right_base_rating","left_valence","right_valence","abs_diff","participant_response","chosen_side","valid_response"
"pavlovia","0","2056","0.0-0.0","1017","37","post","3","morning","2026-02-16","2026-02-28","2026-03-02T15:09:08.583Z","Mozilla/5.0 (iPhone; CPU iPhone OS 18_7 like Mac OS X) AppleWebKit/605.1.15 (KHTML, like Gecko) Mobile/15E148","370","644","480","","","","","","","","","","","","","","","","",""
"instructions","1","4807","0.0-1.0","1017","37","post","3","morning","2026-02-16","2026-02-28","2026-03-02T15:09:08.583Z","Mozilla/5.0 (iPhone; CPU iPhone OS 18_7 like Mac OS X) AppleWebKit/605.1.15 (KHTML, like Gecko) Mobile/15E148","370","644","480","[{""page_index"":0,""viewing_time"":734},{""page_index"":1,""viewing_time"":525},{""page_index"":2,""viewing_time"":842},{""page_index"":3,""viewing_time"":647}]","2749","","","","","","","","","","","","","","",""
"html-keyboard-response","2","5610","0.0-2.0-0.0","1017","37","post","3","morning","2026-02-16","2026-02-28","2026-03-02T15:09:08.583Z","Mozilla/5.0 (iPhone; CPU iPhone OS 18_7 like Mac OS X) AppleWebKit/605.1.15 (KHTML, like Gecko) Mobile/15E148","370","644","480","","null","<div style=""font-size:60px;"">+</div>","null","fixation","","","","","","","","","","","",""
"html-button-response","3","9378","0.0-2.0-1.0","1017","37","post","3","morning","2026-02-16","2026-02-28","2026-03-02T15:09:08.583Z","Mozilla/5.0 (iPhone; CPU iPhone OS 18_7 like Mac OS X) AppleWebKit/605.1.15 (KHTML, like Gecko) Mobile/15E148","370","644","480","","3763","<div class=""prompt"" style=""font-size:24px; margin-bottom:20px;"">Which word describes you more?</div>","0","pairing","1","helpless","disgusting","NegNeg","0","0","negative","negative","0","helpless","left","true"
"html-keyboard-response","4","10180","0.0-2.0-0.1","1017","37","post","3","morning","2026-02-16","2026-02-28","2026-03-02T15:09:08.583Z","Mozilla/5.0 (iPhone; CPU iPhone OS 18_7 like Mac OS X) AppleWebKit/605.1.15 (KHTML, like Gecko) Mobile/15E148","370","644","480","","null","<div style=""font-size:60px;"">+</div>","null","fixation","","","","","","","","","","","",""
"html-button-response","5","11877","0.0-2.0-1.1","1017","37","post","3","morning","2026-02-16","2026-02-28","2026-03-02T15:09:08.583Z","Mozilla/5.0 (iPhone; CPU iPhone OS 18_7 like Mac OS X) AppleWebKit/605.1.15 (KHTML, like Gecko) Mobile/15E148","370","644","480","","1694","<div class=""prompt"" style=""font-size:24px; margin-bottom:20px;"">Which word describes you more?</div>","1","pairing","2","alluring","jealous","PosNeg","17","21","positive","negative","4","jealous","right","true"
"html-keyboard-response","6","12679","0.0-2.0-0.2","1017","37","post","3","morning","2026-02-16","2026-02-28","2026-03-02T15:09:08.583Z","Mozilla/5.0 (iPhone; CPU iPhone OS 18_7 like Mac OS X) AppleWebKit/605.1.15 (KHTML, like Gecko) Mobile/15E148","370","644","480","","null","<div style=""font-size:60px;"">+</div>","null","fixation","","","","","","","","","","","",""
"html-button-response","7","13741","0.0-2.0-1.2","1017","37","post","3","morning","2026-02-16","2026-02-28","2026-03-02T15:09:08.583Z","Mozilla/5.0 (iPhone; CPU iPhone OS 18_7 like Mac OS X) AppleWebKit/605.1.15 (KHTML, like Gecko) Mobile/15E148","370","644","480","","1061","<div class=""prompt"" style=""font-size:24px; margin-bottom:20px;"">Which word describes you more?</div>","1","pairing","3","jealous","friend","PosNeg","21","94","negative","positive","73","friend","right","true"
"html-keyboard-response","8","14543","0.0-2.0-0.3","1017","37","post","3","morning","2026-02-16","2026-02-28","2026-03-02T15:09:08.583Z","Mozilla/5.0 (iPhone; CPU iPhone OS 18_7 like Mac OS X) AppleWebKit/605.1.15 (KHTML, like Gecko) Mobile/15E148","370","644","480","","null","<div style=""font-size:60px;"">+</div>","null","fixation","","","","","","","","","","","",""
"html-button-response","9","16098","0.0-2.0-1.3","1017","37","post","3","morning","2026-02-16","2026-02-28","2026-03-02T15:09:08.583Z","Mozilla/5.0 (iPhone; CPU iPhone OS 18_7 like Mac OS X) AppleWebKit/605.1.15 (KHTML, like Gecko) Mobile/15E148","370","644","480","","1552","<div class=""prompt"" style=""font-size:24px; margin-bottom:20px;"">Which word describes you more?</div>","0","pairing","4","smart","awkward","PosNeg","69","49","positive","negative","20","smart","left","true"
"html-keyboard-response","10","16900","0.0-2.0-0.4","1017","37","post","3","morning","2026-02-16","2026-02-28","2026-03-02T15:09:08.583Z","Mozilla/5.0 (iPhone; CPU iPhone OS 18_7 like Mac OS X) AppleWebKit/605.1.15 (KHTML, like Gecko) Mobile/15E148","370","644","480","","null","<div style=""font-size:60px;"">+</div>","null","fixation","","","","","","","","","","","",""
"html-button-response","11","17936","0.0-2.0-1.4","1017","37","post","3","morning","2026-02-16","2026-02-28","2026-03-02T15:09:08.583Z","Mozilla/5.0 (iPhone; CPU iPhone OS 18_7 like Mac OS X) AppleWebKit/605.1.15 (KHTML, like Gecko) Mobile/15E148","370","644","480","","1034","<div class=""prompt"" style=""font-size:24px; margin-bottom:20px;"">Which word describes you more?</div>","1","pairing","5","disgusting","cooperative","PosNeg","0","92","negative","positive","92","cooperative","right","true"
"html-keyboard-response","12","18739","0.0-2.0-0.5","1017","37","post","3","morning","2026-02-16","2026-02-28","2026-03-02T15:09:08.583Z","Mozilla/5.0 (iPhone; CPU iPhone OS 18_7 like Mac OS X) AppleWebKit/605.1.15 (KHTML, like Gecko) Mobile/15E148","370","644","480","","null","<div style=""font-size:60px;"">+</div>","null","fixation","","","","","","","","","","","",""
"html-button-response","13","19944","0.0-2.0-1.5","1017","37","post","3","morning","2026-02-16","2026-02-28","2026-03-02T15:09:08.583Z","Mozilla/5.0 (iPhone; CPU iPhone OS 18_7 like Mac OS X) AppleWebKit/605.1.15 (KHTML, like Gecko) Mobile/15E148","370","644","480","","1204","<div class=""prompt"" style=""font-size:24px; margin-bottom:20px;"">Which word describes you more?</div>","1","pairing","6","arrogant","thoughtful","PosNeg","0","100","negative","positive","100","thoughtful","right","true"
"html-keyboard-response","14","20746","0.0-2.0-0.6","1017","37","post","3","morning","2026-02-16","2026-02-28","2026-03-02T15:09:08.583Z","Mozilla/5.0 (iPhone; CPU iPhone OS 18_7 like Mac OS X) AppleWebKit/605.1.15 (KHTML, like Gecko) Mobile/15E148","370","644","480","","null","<div style=""font-size:60px;"">+</div>","null","fixation","","","","","","","","","","","",""
"html-button-response","15","22395","0.0-2.0-1.6","1017","37","post","3","morning","2026-02-16","2026-02-28","2026-03-02T15:09:08.583Z","Mozilla/5.0 (iPhone; CPU iPhone OS 18_7 like Mac OS X) AppleWebKit/605.1.15 (KHTML, like Gecko) Mobile/15E148","370","644","480","","1647","<div class=""prompt"" style=""font-size:24px; margin-bottom:20px;"">Which word describes you more?</div>","1","pairing","7","defective","honest","PosNeg","0","78","negative","positive","78","honest","right","true"
"html-keyboard-response","16","23197","0.0-2.0-0.7","1017","37","post","3","morning","2026-02-16","2026-02-28","2026-03-02T15:09:08.583Z","Mozilla/5.0 (iPhone; CPU iPhone OS 18_7 like Mac OS X) AppleWebKit/605.1.15 (KHTML, like Gecko) Mobile/15E148","370","644","480","","null","<div style=""font-size:60px;"">+</div>","null","fixation","","","","","","","","","","","",""
"html-button-response","17","25112","0.0-2.0-1.7","1017","37","post","3","morning","2026-02-16","2026-02-28","2026-03-02T15:09:08.583Z","Mozilla/5.0 (iPhone; CPU iPhone OS 18_7 like Mac OS X) AppleWebKit/605.1.15 (KHTML, like Gecko) Mobile/15E148","370","644","480","","1914","<div class=""prompt"" style=""font-size:24px; margin-bottom:20px;"">Which word describes you more?</div>","1","pairing","8","bitter","alluring","PosNeg","0","17","negative","positive","17","alluring","right","true"
"html-keyboard-response","18","25914","0.0-2.0-0.8","1017","37","post","3","morning","2026-02-16","2026-02-28","2026-03-02T15:09:08.583Z","Mozilla/5.0 (iPhone; CPU iPhone OS 18_7 like Mac OS X) AppleWebKit/605.1.15 (KHTML, like Gecko) Mobile/15E148","370","644","480","","null","<div style=""font-size:60px;"">+</div>","null","fixation","","","","","","","","","","","",""
"html-button-response","19","28088","0.0-2.0-1.8","1017","37","post","3","morning","2026-02-16","2026-02-28","2026-03-02T15:09:08.583Z","Mozilla/5.0 (iPhone; CPU iPhone OS 18_7 like Mac OS X) AppleWebKit/605.1.15 (KHTML, like Gecko) Mobile/15E148","370","644","480","","2172","<div class=""prompt"" style=""font-size:24px; margin-bottom:20px;"">Which word describes you more?</div>","1","pairing","9","vengeful","problematic","NegNeg","0","0","negative","negative","0","problematic","right","true"
"html-keyboard-response","20","28890","0.0-2.0-0.9","1017","37","post","3","morning","2026-02-16","2026-02-28","2026-03-02T15:09:08.583Z","Mozilla/5.0 (iPhone; CPU iPhone OS 18_7 like Mac OS X) AppleWebKit/605.1.15 (KHTML, like Gecko) Mobile/15E148","370","644","480","","null","<div style=""font-size:60px;"">+</div>","null","fixation","","","","","","","","","","","",""
"html-button-response","21","29994","0.0-2.0-1.9","1017","37","post","3","morning","2026-02-16","2026-02-28","2026-03-02T15:09:08.583Z","Mozilla/5.0 (iPhone; CPU iPhone OS 18_7 like Mac OS X) AppleWebKit/605.1.15 (KHTML, like Gecko) Mobile/15E148","370","644","480","","1103","<div class=""prompt"" style=""font-size:24px; margin-bottom:20px;"">Which word describes you more?</div>","1","pairing","10","graceful","seeker","PosPos","51","100","positive","positive","49","seeker","right","true"
"html-keyboard-response","22","30796","0.0-2.0-0.10","1017","37","post","3","morning","2026-02-16","2026-02-28","2026-03-02T15:09:08.583Z","Mozilla/5.0 (iPhone; CPU iPhone OS 18_7 like Mac OS X) AppleWebKit/605.1.15 (KHTML, like Gecko) Mobile/15E148","370","644","480","","null","<div style=""font-size:60px;"">+</div>","null","fixation","","","","","","","","","","","",""
"html-button-response","23","33338","0.0-2.0-1.10","1017","37","post","3","morning","2026-02-16","2026-02-28","2026-03-02T15:09:08.583Z","Mozilla/5.0 (iPhone; CPU iPhone OS 18_7 like Mac OS X) AppleWebKit/605.1.15 (KHTML, like Gecko) Mobile/15E148","370","644","480","","2539","<div class=""prompt"" style=""font-size:24px; margin-bottom:20px;"">Which word describes you more?</div>","1","pairing","11","clever","sensible","PosPos","78","82","positive","positive","4","sensible","right","true"
"html-keyboard-response","24","34140","0.0-2.0-0.11","1017","37","post","3","morning","2026-02-16","2026-02-28","2026-03-02T15:09:08.583Z","Mozilla/5.0 (iPhone; CPU iPhone OS 18_7 like Mac OS X) AppleWebKit/605.1.15 (KHTML, like Gecko) Mobile/15E148","370","644","480","","null","<div style=""font-size:60px;"">+</div>","null","fixation","","","","","","","","","","","",""
"html-button-response","25","35322","0.0-2.0-1.11","1017","37","post","3","morning","2026-02-16","2026-02-28","2026-03-02T15:09:08.583Z","Mozilla/5.0 (iPhone; CPU iPhone OS 18_7 like Mac OS X) AppleWebKit/605.1.15 (KHTML, like Gecko) Mobile/15E148","370","644","480","","1180","<div class=""prompt"" style=""font-size:24px; margin-bottom:20px;"">Which word describes you more?</div>","1","pairing","12","anxious","visionary","PosNeg","48","90","negative","positive","42","visionary","right","true"
"html-keyboard-response","26","36124","0.0-2.0-0.12","1017","37","post","3","morning","2026-02-16","2026-02-28","2026-03-02T15:09:08.583Z","Mozilla/5.0 (iPhone; CPU iPhone OS 18_7 like Mac OS X) AppleWebKit/605.1.15 (KHTML, like Gecko) Mobile/15E148","370","644","480","","null","<div style=""font-size:60px;"">+</div>","null","fixation","","","","","","","","","","","",""
"html-button-response","27","37781","0.0-2.0-1.12","1017","37","post","3","morning","2026-02-16","2026-02-28","2026-03-02T15:09:08.583Z","Mozilla/5.0 (iPhone; CPU iPhone OS 18_7 like Mac OS X) AppleWebKit/605.1.15 (KHTML, like Gecko) Mobile/15E148","370","644","480","","1656","<div class=""prompt"" style=""font-size:24px; margin-bottom:20px;"">Which word describes you more?</div>","1","pairing","13","gloomy","insecure","NegNeg","0","39","negative","negative","39","insecure","right","true"
"html-keyboard-response","28","38583","0.0-2.0-0.13","1017","37","post","3","morning","2026-02-16","2026-02-28","2026-03-02T15:09:08.583Z","Mozilla/5.0 (iPhone; CPU iPhone OS 18_7 like Mac OS X) AppleWebKit/605.1.15 (KHTML, like Gecko) Mobile/15E148","370","644","480","","null","<div style=""font-size:60px;"">+</div>","null","fixation","","","","","","","","","","","",""
"html-button-response","29","40456","0.0-2.0-1.13","1017","37","post","3","morning","2026-02-16","2026-02-28","2026-03-02T15:09:08.583Z","Mozilla/5.0 (iPhone; CPU iPhone OS 18_7 like Mac OS X) AppleWebKit/605.1.15 (KHTML, like Gecko) Mobile/15E148","370","644","480","","1872","<div class=""prompt"" style=""font-size:24px; margin-bottom:20px;"">Which word describes you more?</div>","0","pairing","14","smiley","gentle","PosPos","100","62","positive","positive","38","smiley","left","true"
"html-keyboard-response","30","41258","0.0-2.0-0.14","1017","37","post","3","morning","2026-02-16","2026-02-28","2026-03-02T15:09:08.583Z","Mozilla/5.0 (iPhone; CPU iPhone OS 18_7 like Mac OS X) AppleWebKit/605.1.15 (KHTML, like Gecko) Mobile/15E148","370","644","480","","null","<div style=""font-size:60px;"">+</div>","null","fixation","","","","","","","","","","","",""
"html-button-response","31","44089","0.0-2.0-1.14","1017","37","post","3","morning","2026-02-16","2026-02-28","2026-03-02T15:09:08.583Z","Mozilla/5.0 (iPhone; CPU iPhone OS 18_7 like Mac OS X) AppleWebKit/605.1.15 (KHTML, like Gecko) Mobile/15E148","370","644","480","","2830","<div class=""prompt"" style=""font-size:24px; margin-bottom:20px;"">Which word describes you more?</div>","1","pairing","15","spontaneous","spectacular","PosPos","66","56","positive","positive","10","spectacular","right","true"
"html-keyboard-response","32","44892","0.0-2.0-0.15","1017","37","post","3","morning","2026-02-16","2026-02-28","2026-03-02T15:09:08.583Z","Mozilla/5.0 (iPhone; CPU iPhone OS 18_7 like Mac OS X) AppleWebKit/605.1.15 (KHTML, like Gecko) Mobile/15E148","370","644","480","","null","<div style=""font-size:60px;"">+</div>","null","fixation","","","","","","","","","","","",""
"html-button-response","33","47240","0.0-2.0-1.15","1017","37","post","3","morning","2026-02-16","2026-02-28","2026-03-02T15:09:08.583Z","Mozilla/5.0 (iPhone; CPU iPhone OS 18_7 like Mac OS X) AppleWebKit/605.1.15 (KHTML, like Gecko) Mobile/15E148","370","644","480","","2347","<div class=""prompt"" style=""font-size:24px; margin-bottom:20px;"">Which word describes you more?</div>","1","pairing","16","easygoing","distressed","PosNeg","56","15","positive","negative","41","distressed","right","true"
"html-keyboard-response","34","48042","0.0-2.0-0.16","1017","37","post","3","morning","2026-02-16","2026-02-28","2026-03-02T15:09:08.583Z","Mozilla/5.0 (iPhone; CPU iPhone OS 18_7 like Mac OS X) AppleWebKit/605.1.15 (KHTML, like Gecko) Mobile/15E148","370","644","480","","null","<div style=""font-size:60px;"">+</div>","null","fixation","","","","","","","","","","","",""
"html-button-response","35","49749","0.0-2.0-1.16","1017","37","post","3","morning","2026-02-16","2026-02-28","2026-03-02T15:09:08.583Z","Mozilla/5.0 (iPhone; CPU iPhone OS 18_7 like Mac OS X) AppleWebKit/605.1.15 (KHTML, like Gecko) Mobile/15E148","370","644","480","","1705","<div class=""prompt"" style=""font-size:24px; margin-bottom:20px;"">Which word describes you more?</div>","1","pairing","17","fraud","spirited","PosNeg","6","85","negative","positive","79","spirited","right","true"
"html-keyboard-response","36","50551","0.0-2.0-0.17","1017","37","post","3","morning","2026-02-16","2026-02-28","2026-03-02T15:09:08.583Z","Mozilla/5.0 (iPhone; CPU iPhone OS 18_7 like Mac OS X) AppleWebKit/605.1.15 (KHTML, like Gecko) Mobile/15E148","370","644","480","","null","<div style=""font-size:60px;"">+</div>","null","fixation","","","","","","","","","","","",""
"html-button-response","37","51683","0.0-2.0-1.17","1017","37","post","3","morning","2026-02-16","2026-02-28","2026-03-02T15:09:08.583Z","Mozilla/5.0 (iPhone; CPU iPhone OS 18_7 like Mac OS X) AppleWebKit/605.1.15 (KHTML, like Gecko) Mobile/15E148","370","644","480","","1130","<div class=""prompt"" style=""font-size:24px; margin-bottom:20px;"">Which word describes you more?</div>","1","pairing","18","adorable","reliable","PosPos","28","95","positive","positive","67","reliable","right","true"
"html-keyboard-response","38","52485","0.0-2.0-0.18","1017","37","post","3","morning","2026-02-16","2026-02-28","2026-03-02T15:09:08.583Z","Mozilla/5.0 (iPhone; CPU iPhone OS 18_7 like Mac OS X) AppleWebKit/605.1.15 (KHTML, like Gecko) Mobile/15E148","370","644","480","","null","<div style=""font-size:60px;"">+</div>","null","fixation","","","","","","","","","","","",""
"html-button-response","39","54676","0.0-2.0-1.18","1017","37","post","3","morning","2026-02-16","2026-02-28","2026-03-02T15:09:08.583Z","Mozilla/5.0 (iPhone; CPU iPhone OS 18_7 like Mac OS X) AppleWebKit/605.1.15 (KHTML, like Gecko) Mobile/15E148","370","644","480","","2189","<div class=""prompt"" style=""font-size:24px; margin-bottom:20px;"">Which word describes you more?</div>","1","pairing","19","anxious","jealous","NegNeg","48","21","negative","negative","27","jealous","right","true"
"html-keyboard-response","40","55477","0.0-2.0-0.19","1017","37","post","3","morning","2026-02-16","2026-02-28","2026-03-02T15:09:08.583Z","Mozilla/5.0 (iPhone; CPU iPhone OS 18_7 like Mac OS X) AppleWebKit/605.1.15 (KHTML, like Gecko) Mobile/15E148","370","644","480","","null","<div style=""font-size:60px;"">+</div>","null","fixation","","","","","","","","","","","",""
"html-button-response","41","57026","0.0-2.0-1.19","1017","37","post","3","morning","2026-02-16","2026-02-28","2026-03-02T15:09:08.583Z","Mozilla/5.0 (iPhone; CPU iPhone OS 18_7 like Mac OS X) AppleWebKit/605.1.15 (KHTML, like Gecko) Mobile/15E148","370","644","480","","1548","<div class=""prompt"" style=""font-size:24px; margin-bottom:20px;"">Which word describes you more?</div>","0","pairing","20","grateful","adorable","PosPos","100","28","positive","positive","72","grateful","left","true"
"html-keyboard-response","42","57828","0.0-2.0-0.20","1017","37","post","3","morning","2026-02-16","2026-02-28","2026-03-02T15:09:08.583Z","Mozilla/5.0 (iPhone; CPU iPhone OS 18_7 like Mac OS X) AppleWebKit/605.1.15 (KHTML, like Gecko) Mobile/15E148","370","644","480","","null","<div style=""font-size:60px;"">+</div>","null","fixation","","","","","","","","","","","",""
"html-button-response","43","60243","0.0-2.0-1.20","1017","37","post","3","morning","2026-02-16","2026-02-28","2026-03-02T15:09:08.583Z","Mozilla/5.0 (iPhone; CPU iPhone OS 18_7 like Mac OS X) AppleWebKit/605.1.15 (KHTML, like Gecko) Mobile/15E148","370","644","480","","2413","<div class=""prompt"" style=""font-size:24px; margin-bottom:20px;"">Which word describes you more?</div>","0","pairing","21","selfish","alluring","PosNeg","28","17","negative","positive","11","selfish","left","true"
"html-keyboard-response","44","61045","0.0-2.0-0.21","1017","37","post","3","morning","2026-02-16","2026-02-28","2026-03-02T15:09:08.583Z","Mozilla/5.0 (iPhone; CPU iPhone OS 18_7 like Mac OS X) AppleWebKit/605.1.15 (KHTML, like Gecko) Mobile/15E148","370","644","480","","null","<div style=""font-size:60px;"">+</div>","null","fixation","","","","","","","","","","","",""
"html-button-response","45","62477","0.0-2.0-1.21","1017","37","post","3","morning","2026-02-16","2026-02-28","2026-03-02T15:09:08.583Z","Mozilla/5.0 (iPhone; CPU iPhone OS 18_7 like Mac OS X) AppleWebKit/605.1.15 (KHTML, like Gecko) Mobile/15E148","370","644","480","","1430","<div class=""prompt"" style=""font-size:24px; margin-bottom:20px;"">Which word describes you more?</div>","0","pairing","22","knowledgeable","miserable","PosNeg","84","5","positive","negative","79","knowledgeable","left","true"
"html-keyboard-response","46","63279","0.0-2.0-0.22","1017","37","post","3","morning","2026-02-16","2026-02-28","2026-03-02T15:09:08.583Z","Mozilla/5.0 (iPhone; CPU iPhone OS 18_7 like Mac OS X) AppleWebKit/605.1.15 (KHTML, like Gecko) Mobile/15E148","370","644","480","","null","<div style=""font-size:60px;"">+</div>","null","fixation","","","","","","","","","","","",""
"html-button-response","47","65161","0.0-2.0-1.22","1017","37","post","3","morning","2026-02-16","2026-02-28","2026-03-02T15:09:08.583Z","Mozilla/5.0 (iPhone; CPU iPhone OS 18_7 like Mac OS X) AppleWebKit/605.1.15 (KHTML, like Gecko) Mobile/15E148","370","644","480","","1878","<div class=""prompt"" style=""font-size:24px; margin-bottom:20px;"">Which word describes you more?</div>","1","pairing","23","gloomy","hater","NegNeg","0","8","negative","negative","8","hater","right","true"
"html-keyboard-response","48","65963","0.0-2.0-0.23","1017","37","post","3","morning","2026-02-16","2026-02-28","2026-03-02T15:09:08.583Z","Mozilla/5.0 (iPhone; CPU iPhone OS 18_7 like Mac OS X) AppleWebKit/605.1.15 (KHTML, like Gecko) Mobile/15E148","370","644","480","","null","<div style=""font-size:60px;"">+</div>","null","fixation","","","","","","","","","","","",""
"html-button-response","49","68911","0.0-2.0-1.23","1017","37","post","3","morning","2026-02-16","2026-02-28","2026-03-02T15:09:08.583Z","Mozilla/5.0 (iPhone; CPU iPhone OS 18_7 like Mac OS X) AppleWebKit/605.1.15 (KHTML, like Gecko) Mobile/15E148","370","644","480","","2948","<div class=""prompt"" style=""font-size:24px; margin-bottom:20px;"">Which word describes you more?</div>","1","pairing","24","anxious","dull","NegNeg","48","0","negative","negative","48","dull","right","true"
"instructions","50","70204","0.0-3.0","1017","37","post","3","morning","2026-02-16","2026-02-28","2026-03-02T15:09:08.583Z","Mozilla/5.0 (iPhone; CPU iPhone OS 18_7 like Mac OS X) AppleWebKit/605.1.15 (KHTML, like Gecko) Mobile/15E148","370","644","480","[{""page_index"":0,""viewing_time"":1291}]","1291","","","","","","","","","","","","","","",""
