"trial_type","trial_index","time_elapsed","internal_node_id","PUNS_ID","session_number","session_phase","session_day","session_slot","ema_start_date","ema_post_start_date","experiment_start","browser","screen_width","screen_height","timezone_offset","view_history","rt","stimulus","response","which_experiment_phase","trial_number","left_word","right_word","valence","left_base_rating","right_base_rating","left_valence","right_valence","abs_diff","participant_response","chosen_side","valid_response"
"pavlovia","0","1944","0.0-0.0","1083","6","pre","2","evening","2026-04-15","2026-04-27","2026-04-17T02:42:34.620Z","Mozilla/5.0 (iPhone; CPU iPhone OS 18_7 like Mac OS X) AppleWebKit/605.1.15 (KHTML, like Gecko) Mobile/15E148","358","632","420","","","","","","","","","","","","","","","","",""
"instructions","1","9080","0.0-1.0","1083","6","pre","2","evening","2026-04-15","2026-04-27","2026-04-17T02:42:34.620Z","Mozilla/5.0 (iPhone; CPU iPhone OS 18_7 like Mac OS X) AppleWebKit/605.1.15 (KHTML, like Gecko) Mobile/15E148","358","632","420","[{""page_index"":0,""viewing_time"":868},{""page_index"":1,""viewing_time"":1201},{""page_index"":2,""viewing_time"":1720},{""page_index"":3,""viewing_time"":3340}]","7130","","","","","","","","","","","","","","",""
"html-keyboard-response","2","9884","0.0-2.0-0.0","1083","6","pre","2","evening","2026-04-15","2026-04-27","2026-04-17T02:42:34.620Z","Mozilla/5.0 (iPhone; CPU iPhone OS 18_7 like Mac OS X) AppleWebKit/605.1.15 (KHTML, like Gecko) Mobile/15E148","358","632","420","","null","<div style=""font-size:60px;"">+</div>","null","fixation","","","","","","","","","","","",""
"html-button-response","3","11398","0.0-2.0-1.0","1083","6","pre","2","evening","2026-04-15","2026-04-27","2026-04-17T02:42:34.620Z","Mozilla/5.0 (iPhone; CPU iPhone OS 18_7 like Mac OS X) AppleWebKit/605.1.15 (KHTML, like Gecko) Mobile/15E148","358","632","420","","1507","<div class=""prompt"" style=""font-size:24px; margin-bottom:20px;"">Which word describes you more?</div>","1","pairing","1","energetic","sensible","PosPos","51","100","positive","positive","49","sensible","right","true"
"html-keyboard-response","4","12200","0.0-2.0-0.1","1083","6","pre","2","evening","2026-04-15","2026-04-27","2026-04-17T02:42:34.620Z","Mozilla/5.0 (iPhone; CPU iPhone OS 18_7 like Mac OS X) AppleWebKit/605.1.15 (KHTML, like Gecko) Mobile/15E148","358","632","420","","null","<div style=""font-size:60px;"">+</div>","null","fixation","","","","","","","","","","","",""
"html-button-response","5","14013","0.0-2.0-1.1","1083","6","pre","2","evening","2026-04-15","2026-04-27","2026-04-17T02:42:34.620Z","Mozilla/5.0 (iPhone; CPU iPhone OS 18_7 like Mac OS X) AppleWebKit/605.1.15 (KHTML, like Gecko) Mobile/15E148","358","632","420","","1808","<div class=""prompt"" style=""font-size:24px; margin-bottom:20px;"">Which word describes you more?</div>","0","pairing","2","unlucky","toxic","NegNeg","49","3","negative","negative","46","unlucky","left","true"
"html-keyboard-response","6","14816","0.0-2.0-0.2","1083","6","pre","2","evening","2026-04-15","2026-04-27","2026-04-17T02:42:34.620Z","Mozilla/5.0 (iPhone; CPU iPhone OS 18_7 like Mac OS X) AppleWebKit/605.1.15 (KHTML, like Gecko) Mobile/15E148","358","632","420","","null","<div style=""font-size:60px;"">+</div>","null","fixation","","","","","","","","","","","",""
"html-button-response","7","17117","0.0-2.0-1.2","1083","6","pre","2","evening","2026-04-15","2026-04-27","2026-04-17T02:42:34.620Z","Mozilla/5.0 (iPhone; CPU iPhone OS 18_7 like Mac OS X) AppleWebKit/605.1.15 (KHTML, like Gecko) Mobile/15E148","358","632","420","","2299","<div class=""prompt"" style=""font-size:24px; margin-bottom:20px;"">Which word describes you more?</div>","1","pairing","3","cruel","alone","NegNeg","1","3","negative","negative","2","alone","right","true"
"html-keyboard-response","8","17919","0.0-2.0-0.3","1083","6","pre","2","evening","2026-04-15","2026-04-27","2026-04-17T02:42:34.620Z","Mozilla/5.0 (iPhone; CPU iPhone OS 18_7 like Mac OS X) AppleWebKit/605.1.15 (KHTML, like Gecko) Mobile/15E148","358","632","420","","null","<div style=""font-size:60px;"">+</div>","null","fixation","","","","","","","","","","","",""
"html-button-response","9","20268","0.0-2.0-1.3","1083","6","pre","2","evening","2026-04-15","2026-04-27","2026-04-17T02:42:34.620Z","Mozilla/5.0 (iPhone; CPU iPhone OS 18_7 like Mac OS X) AppleWebKit/605.1.15 (KHTML, like Gecko) Mobile/15E148","358","632","420","","2346","<div class=""prompt"" style=""font-size:24px; margin-bottom:20px;"">Which word describes you more?</div>","0","pairing","4","healthy","quitter","PosNeg","87","23","positive","negative","64","healthy","left","true"
"html-keyboard-response","10","21071","0.0-2.0-0.4","1083","6","pre","2","evening","2026-04-15","2026-04-27","2026-04-17T02:42:34.620Z","Mozilla/5.0 (iPhone; CPU iPhone OS 18_7 like Mac OS X) AppleWebKit/605.1.15 (KHTML, like Gecko) Mobile/15E148","358","632","420","","null","<div style=""font-size:60px;"">+</div>","null","fixation","","","","","","","","","","","",""
"html-button-response","11","23572","0.0-2.0-1.4","1083","6","pre","2","evening","2026-04-15","2026-04-27","2026-04-17T02:42:34.620Z","Mozilla/5.0 (iPhone; CPU iPhone OS 18_7 like Mac OS X) AppleWebKit/605.1.15 (KHTML, like Gecko) Mobile/15E148","358","632","420","","2499","<div class=""prompt"" style=""font-size:24px; margin-bottom:20px;"">Which word describes you more?</div>","1","pairing","5","virtuous","safe","PosPos","50","73","positive","positive","23","safe","right","true"
"html-keyboard-response","12","24375","0.0-2.0-0.5","1083","6","pre","2","evening","2026-04-15","2026-04-27","2026-04-17T02:42:34.620Z","Mozilla/5.0 (iPhone; CPU iPhone OS 18_7 like Mac OS X) AppleWebKit/605.1.15 (KHTML, like Gecko) Mobile/15E148","358","632","420","","null","<div style=""font-size:60px;"">+</div>","null","fixation","","","","","","","","","","","",""
"html-button-response","13","25852","0.0-2.0-1.5","1083","6","pre","2","evening","2026-04-15","2026-04-27","2026-04-17T02:42:34.620Z","Mozilla/5.0 (iPhone; CPU iPhone OS 18_7 like Mac OS X) AppleWebKit/605.1.15 (KHTML, like Gecko) Mobile/15E148","358","632","420","","1475","<div class=""prompt"" style=""font-size:24px; margin-bottom:20px;"">Which word describes you more?</div>","0","pairing","6","friend","champion","PosPos","95","11","positive","positive","84","friend","left","true"
"html-keyboard-response","14","26654","0.0-2.0-0.6","1083","6","pre","2","evening","2026-04-15","2026-04-27","2026-04-17T02:42:34.620Z","Mozilla/5.0 (iPhone; CPU iPhone OS 18_7 like Mac OS X) AppleWebKit/605.1.15 (KHTML, like Gecko) Mobile/15E148","358","632","420","","null","<div style=""font-size:60px;"">+</div>","null","fixation","","","","","","","","","","","",""
"html-button-response","15","28258","0.0-2.0-1.6","1083","6","pre","2","evening","2026-04-15","2026-04-27","2026-04-17T02:42:34.620Z","Mozilla/5.0 (iPhone; CPU iPhone OS 18_7 like Mac OS X) AppleWebKit/605.1.15 (KHTML, like Gecko) Mobile/15E148","358","632","420","","1601","<div class=""prompt"" style=""font-size:24px; margin-bottom:20px;"">Which word describes you more?</div>","0","pairing","7","eloquent","expert","PosPos","79","34","positive","positive","45","eloquent","left","true"
"html-keyboard-response","16","29060","0.0-2.0-0.7","1083","6","pre","2","evening","2026-04-15","2026-04-27","2026-04-17T02:42:34.620Z","Mozilla/5.0 (iPhone; CPU iPhone OS 18_7 like Mac OS X) AppleWebKit/605.1.15 (KHTML, like Gecko) Mobile/15E148","358","632","420","","null","<div style=""font-size:60px;"">+</div>","null","fixation","","","","","","","","","","","",""
"html-button-response","17","32347","0.0-2.0-1.7","1083","6","pre","2","evening","2026-04-15","2026-04-27","2026-04-17T02:42:34.620Z","Mozilla/5.0 (iPhone; CPU iPhone OS 18_7 like Mac OS X) AppleWebKit/605.1.15 (KHTML, like Gecko) Mobile/15E148","358","632","420","","3279","<div class=""prompt"" style=""font-size:24px; margin-bottom:20px;"">Which word describes you more?</div>","0","pairing","8","appealing","easygoing","PosPos","83","73","positive","positive","10","appealing","left","true"
"html-keyboard-response","18","33150","0.0-2.0-0.8","1083","6","pre","2","evening","2026-04-15","2026-04-27","2026-04-17T02:42:34.620Z","Mozilla/5.0 (iPhone; CPU iPhone OS 18_7 like Mac OS X) AppleWebKit/605.1.15 (KHTML, like Gecko) Mobile/15E148","358","632","420","","null","<div style=""font-size:60px;"">+</div>","null","fixation","","","","","","","","","","","",""
"html-button-response","19","34381","0.0-2.0-1.8","1083","6","pre","2","evening","2026-04-15","2026-04-27","2026-04-17T02:42:34.620Z","Mozilla/5.0 (iPhone; CPU iPhone OS 18_7 like Mac OS X) AppleWebKit/605.1.15 (KHTML, like Gecko) Mobile/15E148","358","632","420","","1227","<div class=""prompt"" style=""font-size:24px; margin-bottom:20px;"">Which word describes you more?</div>","1","pairing","9","carefree","safe","PosPos","0","73","positive","positive","73","safe","right","true"
"html-keyboard-response","20","35184","0.0-2.0-0.9","1083","6","pre","2","evening","2026-04-15","2026-04-27","2026-04-17T02:42:34.620Z","Mozilla/5.0 (iPhone; CPU iPhone OS 18_7 like Mac OS X) AppleWebKit/605.1.15 (KHTML, like Gecko) Mobile/15E148","358","632","420","","null","<div style=""font-size:60px;"">+</div>","null","fixation","","","","","","","","","","","",""
"html-button-response","21","37447","0.0-2.0-1.9","1083","6","pre","2","evening","2026-04-15","2026-04-27","2026-04-17T02:42:34.620Z","Mozilla/5.0 (iPhone; CPU iPhone OS 18_7 like Mac OS X) AppleWebKit/605.1.15 (KHTML, like Gecko) Mobile/15E148","358","632","420","","2260","<div class=""prompt"" style=""font-size:24px; margin-bottom:20px;"">Which word describes you more?</div>","0","pairing","10","committed","bully","PosNeg","68","1","positive","negative","67","committed","left","true"
"html-keyboard-response","22","38250","0.0-2.0-0.10","1083","6","pre","2","evening","2026-04-15","2026-04-27","2026-04-17T02:42:34.620Z","Mozilla/5.0 (iPhone; CPU iPhone OS 18_7 like Mac OS X) AppleWebKit/605.1.15 (KHTML, like Gecko) Mobile/15E148","358","632","420","","null","<div style=""font-size:60px;"">+</div>","null","fixation","","","","","","","","","","","",""
"html-button-response","23","40200","0.0-2.0-1.10","1083","6","pre","2","evening","2026-04-15","2026-04-27","2026-04-17T02:42:34.620Z","Mozilla/5.0 (iPhone; CPU iPhone OS 18_7 like Mac OS X) AppleWebKit/605.1.15 (KHTML, like Gecko) Mobile/15E148","358","632","420","","1949","<div class=""prompt"" style=""font-size:24px; margin-bottom:20px;"">Which word describes you more?</div>","0","pairing","11","hesitant","parasite","NegNeg","84","0","negative","negative","84","hesitant","left","true"
"html-keyboard-response","24","41004","0.0-2.0-0.11","1083","6","pre","2","evening","2026-04-15","2026-04-27","2026-04-17T02:42:34.620Z","Mozilla/5.0 (iPhone; CPU iPhone OS 18_7 like Mac OS X) AppleWebKit/605.1.15 (KHTML, like Gecko) Mobile/15E148","358","632","420","","null","<div style=""font-size:60px;"">+</div>","null","fixation","","","","","","","","","","","",""
"html-button-response","25","42686","0.0-2.0-1.11","1083","6","pre","2","evening","2026-04-15","2026-04-27","2026-04-17T02:42:34.620Z","Mozilla/5.0 (iPhone; CPU iPhone OS 18_7 like Mac OS X) AppleWebKit/605.1.15 (KHTML, like Gecko) Mobile/15E148","358","632","420","","1679","<div class=""prompt"" style=""font-size:24px; margin-bottom:20px;"">Which word describes you more?</div>","1","pairing","12","unfaithful","capable","PosNeg","2","92","negative","positive","90","capable","right","true"
"html-keyboard-response","26","43488","0.0-2.0-0.12","1083","6","pre","2","evening","2026-04-15","2026-04-27","2026-04-17T02:42:34.620Z","Mozilla/5.0 (iPhone; CPU iPhone OS 18_7 like Mac OS X) AppleWebKit/605.1.15 (KHTML, like Gecko) Mobile/15E148","358","632","420","","null","<div style=""font-size:60px;"">+</div>","null","fixation","","","","","","","","","","","",""
"html-button-response","27","47675","0.0-2.0-1.12","1083","6","pre","2","evening","2026-04-15","2026-04-27","2026-04-17T02:42:34.620Z","Mozilla/5.0 (iPhone; CPU iPhone OS 18_7 like Mac OS X) AppleWebKit/605.1.15 (KHTML, like Gecko) Mobile/15E148","358","632","420","","4185","<div class=""prompt"" style=""font-size:24px; margin-bottom:20px;"">Which word describes you more?</div>","1","pairing","13","outcast","asset","PosNeg","30","1","negative","positive","29","asset","right","true"
"html-keyboard-response","28","48477","0.0-2.0-0.13","1083","6","pre","2","evening","2026-04-15","2026-04-27","2026-04-17T02:42:34.620Z","Mozilla/5.0 (iPhone; CPU iPhone OS 18_7 like Mac OS X) AppleWebKit/605.1.15 (KHTML, like Gecko) Mobile/15E148","358","632","420","","null","<div style=""font-size:60px;"">+</div>","null","fixation","","","","","","","","","","","",""
"html-button-response","29","50362","0.0-2.0-1.13","1083","6","pre","2","evening","2026-04-15","2026-04-27","2026-04-17T02:42:34.620Z","Mozilla/5.0 (iPhone; CPU iPhone OS 18_7 like Mac OS X) AppleWebKit/605.1.15 (KHTML, like Gecko) Mobile/15E148","358","632","420","","1883","<div class=""prompt"" style=""font-size:24px; margin-bottom:20px;"">Which word describes you more?</div>","1","pairing","14","esteemed","jealous","PosNeg","65","96","positive","negative","31","jealous","right","true"
"html-keyboard-response","30","51165","0.0-2.0-0.14","1083","6","pre","2","evening","2026-04-15","2026-04-27","2026-04-17T02:42:34.620Z","Mozilla/5.0 (iPhone; CPU iPhone OS 18_7 like Mac OS X) AppleWebKit/605.1.15 (KHTML, like Gecko) Mobile/15E148","358","632","420","","null","<div style=""font-size:60px;"">+</div>","null","fixation","","","","","","","","","","","",""
"html-button-response","31","53263","0.0-2.0-1.14","1083","6","pre","2","evening","2026-04-15","2026-04-27","2026-04-17T02:42:34.620Z","Mozilla/5.0 (iPhone; CPU iPhone OS 18_7 like Mac OS X) AppleWebKit/605.1.15 (KHTML, like Gecko) Mobile/15E148","358","632","420","","2097","<div class=""prompt"" style=""font-size:24px; margin-bottom:20px;"">Which word describes you more?</div>","1","pairing","15","empty","companion","PosNeg","1","60","negative","positive","59","companion","right","true"
"html-keyboard-response","32","54066","0.0-2.0-0.15","1083","6","pre","2","evening","2026-04-15","2026-04-27","2026-04-17T02:42:34.620Z","Mozilla/5.0 (iPhone; CPU iPhone OS 18_7 like Mac OS X) AppleWebKit/605.1.15 (KHTML, like Gecko) Mobile/15E148","358","632","420","","null","<div style=""font-size:60px;"">+</div>","null","fixation","","","","","","","","","","","",""
"html-button-response","33","57321","0.0-2.0-1.15","1083","6","pre","2","evening","2026-04-15","2026-04-27","2026-04-17T02:42:34.620Z","Mozilla/5.0 (iPhone; CPU iPhone OS 18_7 like Mac OS X) AppleWebKit/605.1.15 (KHTML, like Gecko) Mobile/15E148","358","632","420","","3252","<div class=""prompt"" style=""font-size:24px; margin-bottom:20px;"">Which word describes you more?</div>","1","pairing","16","violent","legendary","PosNeg","1","2","negative","positive","1","legendary","right","true"
"html-keyboard-response","34","58124","0.0-2.0-0.16","1083","6","pre","2","evening","2026-04-15","2026-04-27","2026-04-17T02:42:34.620Z","Mozilla/5.0 (iPhone; CPU iPhone OS 18_7 like Mac OS X) AppleWebKit/605.1.15 (KHTML, like Gecko) Mobile/15E148","358","632","420","","null","<div style=""font-size:60px;"">+</div>","null","fixation","","","","","","","","","","","",""
"html-button-response","35","60424","0.0-2.0-1.16","1083","6","pre","2","evening","2026-04-15","2026-04-27","2026-04-17T02:42:34.620Z","Mozilla/5.0 (iPhone; CPU iPhone OS 18_7 like Mac OS X) AppleWebKit/605.1.15 (KHTML, like Gecko) Mobile/15E148","358","632","420","","2297","<div class=""prompt"" style=""font-size:24px; margin-bottom:20px;"">Which word describes you more?</div>","1","pairing","17","patient","hesitant","PosNeg","9","84","positive","negative","75","hesitant","right","true"
"html-keyboard-response","36","61226","0.0-2.0-0.17","1083","6","pre","2","evening","2026-04-15","2026-04-27","2026-04-17T02:42:34.620Z","Mozilla/5.0 (iPhone; CPU iPhone OS 18_7 like Mac OS X) AppleWebKit/605.1.15 (KHTML, like Gecko) Mobile/15E148","358","632","420","","null","<div style=""font-size:60px;"">+</div>","null","fixation","","","","","","","","","","","",""
"html-button-response","37","64509","0.0-2.0-1.17","1083","6","pre","2","evening","2026-04-15","2026-04-27","2026-04-17T02:42:34.620Z","Mozilla/5.0 (iPhone; CPU iPhone OS 18_7 like Mac OS X) AppleWebKit/605.1.15 (KHTML, like Gecko) Mobile/15E148","358","632","420","","3280","<div class=""prompt"" style=""font-size:24px; margin-bottom:20px;"">Which word describes you more?</div>","1","pairing","18","jealous","hopeful","PosNeg","96","50","negative","positive","46","hopeful","right","true"
"html-keyboard-response","38","65310","0.0-2.0-0.18","1083","6","pre","2","evening","2026-04-15","2026-04-27","2026-04-17T02:42:34.620Z","Mozilla/5.0 (iPhone; CPU iPhone OS 18_7 like Mac OS X) AppleWebKit/605.1.15 (KHTML, like Gecko) Mobile/15E148","358","632","420","","null","<div style=""font-size:60px;"">+</div>","null","fixation","","","","","","","","","","","",""
"html-button-response","39","69080","0.0-2.0-1.18","1083","6","pre","2","evening","2026-04-15","2026-04-27","2026-04-17T02:42:34.620Z","Mozilla/5.0 (iPhone; CPU iPhone OS 18_7 like Mac OS X) AppleWebKit/605.1.15 (KHTML, like Gecko) Mobile/15E148","358","632","420","","3767","<div class=""prompt"" style=""font-size:24px; margin-bottom:20px;"">Which word describes you more?</div>","1","pairing","19","graceful","anxious","PosNeg","32","70","positive","negative","38","anxious","right","true"
"html-keyboard-response","40","69882","0.0-2.0-0.19","1083","6","pre","2","evening","2026-04-15","2026-04-27","2026-04-17T02:42:34.620Z","Mozilla/5.0 (iPhone; CPU iPhone OS 18_7 like Mac OS X) AppleWebKit/605.1.15 (KHTML, like Gecko) Mobile/15E148","358","632","420","","null","<div style=""font-size:60px;"">+</div>","null","fixation","","","","","","","","","","","",""
"html-button-response","41","71803","0.0-2.0-1.19","1083","6","pre","2","evening","2026-04-15","2026-04-27","2026-04-17T02:42:34.620Z","Mozilla/5.0 (iPhone; CPU iPhone OS 18_7 like Mac OS X) AppleWebKit/605.1.15 (KHTML, like Gecko) Mobile/15E148","358","632","420","","1918","<div class=""prompt"" style=""font-size:24px; margin-bottom:20px;"">Which word describes you more?</div>","1","pairing","20","distressed","jealous","NegNeg","18","96","negative","negative","78","jealous","right","true"
"html-keyboard-response","42","72606","0.0-2.0-0.20","1083","6","pre","2","evening","2026-04-15","2026-04-27","2026-04-17T02:42:34.620Z","Mozilla/5.0 (iPhone; CPU iPhone OS 18_7 like Mac OS X) AppleWebKit/605.1.15 (KHTML, like Gecko) Mobile/15E148","358","632","420","","null","<div style=""font-size:60px;"">+</div>","null","fixation","","","","","","","","","","","",""
"html-button-response","43","75731","0.0-2.0-1.20","1083","6","pre","2","evening","2026-04-15","2026-04-27","2026-04-17T02:42:34.620Z","Mozilla/5.0 (iPhone; CPU iPhone OS 18_7 like Mac OS X) AppleWebKit/605.1.15 (KHTML, like Gecko) Mobile/15E148","358","632","420","","3123","<div class=""prompt"" style=""font-size:24px; margin-bottom:20px;"">Which word describes you more?</div>","0","pairing","21","gloomy","hopeless","NegNeg","13","3","negative","negative","10","gloomy","left","true"
"html-keyboard-response","44","76533","0.0-2.0-0.21","1083","6","pre","2","evening","2026-04-15","2026-04-27","2026-04-17T02:42:34.620Z","Mozilla/5.0 (iPhone; CPU iPhone OS 18_7 like Mac OS X) AppleWebKit/605.1.15 (KHTML, like Gecko) Mobile/15E148","358","632","420","","null","<div style=""font-size:60px;"">+</div>","null","fixation","","","","","","","","","","","",""
"html-button-response","45","79753","0.0-2.0-1.21","1083","6","pre","2","evening","2026-04-15","2026-04-27","2026-04-17T02:42:34.620Z","Mozilla/5.0 (iPhone; CPU iPhone OS 18_7 like Mac OS X) AppleWebKit/605.1.15 (KHTML, like Gecko) Mobile/15E148","358","632","420","","3218","<div class=""prompt"" style=""font-size:24px; margin-bottom:20px;"">Which word describes you more?</div>","1","pairing","22","uninvited","unlucky","NegNeg","1","49","negative","negative","48","unlucky","right","true"
"html-keyboard-response","46","80556","0.0-2.0-0.22","1083","6","pre","2","evening","2026-04-15","2026-04-27","2026-04-17T02:42:34.620Z","Mozilla/5.0 (iPhone; CPU iPhone OS 18_7 like Mac OS X) AppleWebKit/605.1.15 (KHTML, like Gecko) Mobile/15E148","358","632","420","","null","<div style=""font-size:60px;"">+</div>","null","fixation","","","","","","","","","","","",""
"html-button-response","47","84293","0.0-2.0-1.22","1083","6","pre","2","evening","2026-04-15","2026-04-27","2026-04-17T02:42:34.620Z","Mozilla/5.0 (iPhone; CPU iPhone OS 18_7 like Mac OS X) AppleWebKit/605.1.15 (KHTML, like Gecko) Mobile/15E148","358","632","420","","3736","<div class=""prompt"" style=""font-size:24px; margin-bottom:20px;"">Which word describes you more?</div>","0","pairing","23","insecure","admired","PosNeg","96","29","negative","positive","67","insecure","left","true"
"html-keyboard-response","48","85096","0.0-2.0-0.23","1083","6","pre","2","evening","2026-04-15","2026-04-27","2026-04-17T02:42:34.620Z","Mozilla/5.0 (iPhone; CPU iPhone OS 18_7 like Mac OS X) AppleWebKit/605.1.15 (KHTML, like Gecko) Mobile/15E148","358","632","420","","null","<div style=""font-size:60px;"">+</div>","null","fixation","","","","","","","","","","","",""
"html-button-response","49","87699","0.0-2.0-1.23","1083","6","pre","2","evening","2026-04-15","2026-04-27","2026-04-17T02:42:34.620Z","Mozilla/5.0 (iPhone; CPU iPhone OS 18_7 like Mac OS X) AppleWebKit/605.1.15 (KHTML, like Gecko) Mobile/15E148","358","632","420","","2601","<div class=""prompt"" style=""font-size:24px; margin-bottom:20px;"">Which word describes you more?</div>","0","pairing","24","witty","slob","PosNeg","33","0","positive","negative","33","witty","left","true"
"instructions","50","90985","0.0-3.0","1083","6","pre","2","evening","2026-04-15","2026-04-27","2026-04-17T02:42:34.620Z","Mozilla/5.0 (iPhone; CPU iPhone OS 18_7 like Mac OS X) AppleWebKit/605.1.15 (KHTML, like Gecko) Mobile/15E148","358","632","420","[{""page_index"":0,""viewing_time"":3282}]","3283","","","","","","","","","","","","","","",""
