"trial_type","trial_index","time_elapsed","internal_node_id","PUNS_ID","session_number","session_phase","session_day","session_slot","ema_start_date","ema_post_start_date","experiment_start","browser","screen_width","screen_height","timezone_offset","view_history","rt","stimulus","response","which_experiment_phase","trial_number","left_word","right_word","valence","left_base_rating","right_base_rating","left_valence","right_valence","abs_diff","participant_response","chosen_side","valid_response"
"pavlovia","0","1806","0.0-0.0","1015","48","post","6","evening","2026-04-07","2026-04-19","2026-04-25T03:51:34.691Z","Mozilla/5.0 (Linux; Android 14; Pixel 4a (5G) Build/UP1A.231105.001.B2; wv) AppleWebKit/537.36 (KHTML, like Gecko) Version/4.0 Chrome/147.0.7727.57 Mobile Safari/537.36","379","674","240","","","","","","","","","","","","","","","","",""
"instructions","1","4475","0.0-1.0","1015","48","post","6","evening","2026-04-07","2026-04-19","2026-04-25T03:51:34.691Z","Mozilla/5.0 (Linux; Android 14; Pixel 4a (5G) Build/UP1A.231105.001.B2; wv) AppleWebKit/537.36 (KHTML, like Gecko) Version/4.0 Chrome/147.0.7727.57 Mobile Safari/537.36","379","674","240","[{""page_index"":0,""viewing_time"":848},{""page_index"":1,""viewing_time"":539},{""page_index"":2,""viewing_time"":696},{""page_index"":3,""viewing_time"":582}]","2666","","","","","","","","","","","","","","",""
"html-keyboard-response","2","5288","0.0-2.0-0.0","1015","48","post","6","evening","2026-04-07","2026-04-19","2026-04-25T03:51:34.691Z","Mozilla/5.0 (Linux; Android 14; Pixel 4a (5G) Build/UP1A.231105.001.B2; wv) AppleWebKit/537.36 (KHTML, like Gecko) Version/4.0 Chrome/147.0.7727.57 Mobile Safari/537.36","379","674","240","","null","<div style=""font-size:60px;"">+</div>","null","fixation","","","","","","","","","","","",""
"html-button-response","3","6557","0.0-2.0-1.0","1015","48","post","6","evening","2026-04-07","2026-04-19","2026-04-25T03:51:34.691Z","Mozilla/5.0 (Linux; Android 14; Pixel 4a (5G) Build/UP1A.231105.001.B2; wv) AppleWebKit/537.36 (KHTML, like Gecko) Version/4.0 Chrome/147.0.7727.57 Mobile Safari/537.36","379","674","240","","1257","<div class=""prompt"" style=""font-size:24px; margin-bottom:20px;"">Which word describes you more?</div>","1","pairing","1","unfaithful","expert","PosNeg","0","100","negative","positive","100","expert","right","true"
"html-keyboard-response","4","7361","0.0-2.0-0.1","1015","48","post","6","evening","2026-04-07","2026-04-19","2026-04-25T03:51:34.691Z","Mozilla/5.0 (Linux; Android 14; Pixel 4a (5G) Build/UP1A.231105.001.B2; wv) AppleWebKit/537.36 (KHTML, like Gecko) Version/4.0 Chrome/147.0.7727.57 Mobile Safari/537.36","379","674","240","","null","<div style=""font-size:60px;"">+</div>","null","fixation","","","","","","","","","","","",""
"html-button-response","5","12365","0.0-2.0-1.1","1015","48","post","6","evening","2026-04-07","2026-04-19","2026-04-25T03:51:34.691Z","Mozilla/5.0 (Linux; Android 14; Pixel 4a (5G) Build/UP1A.231105.001.B2; wv) AppleWebKit/537.36 (KHTML, like Gecko) Version/4.0 Chrome/147.0.7727.57 Mobile Safari/537.36","379","674","240","","null","<div class=""prompt"" style=""font-size:24px; margin-bottom:20px;"">Which word describes you more?</div>","null","pairing","2","quitter","unlucky","NegNeg","0","65","negative","negative","65","null","null","false"
"html-keyboard-response","6","13172","0.0-2.0-0.2","1015","48","post","6","evening","2026-04-07","2026-04-19","2026-04-25T03:51:34.691Z","Mozilla/5.0 (Linux; Android 14; Pixel 4a (5G) Build/UP1A.231105.001.B2; wv) AppleWebKit/537.36 (KHTML, like Gecko) Version/4.0 Chrome/147.0.7727.57 Mobile Safari/537.36","379","674","240","","null","<div style=""font-size:60px;"">+</div>","null","fixation","","","","","","","","","","","",""
"html-button-response","7","18178","0.0-2.0-1.2","1015","48","post","6","evening","2026-04-07","2026-04-19","2026-04-25T03:51:34.691Z","Mozilla/5.0 (Linux; Android 14; Pixel 4a (5G) Build/UP1A.231105.001.B2; wv) AppleWebKit/537.36 (KHTML, like Gecko) Version/4.0 Chrome/147.0.7727.57 Mobile Safari/537.36","379","674","240","","null","<div class=""prompt"" style=""font-size:24px; margin-bottom:20px;"">Which word describes you more?</div>","null","pairing","3","unlucky","awful","NegNeg","65","0","negative","negative","65","null","null","false"
"html-keyboard-response","8","18987","0.0-2.0-0.3","1015","48","post","6","evening","2026-04-07","2026-04-19","2026-04-25T03:51:34.691Z","Mozilla/5.0 (Linux; Android 14; Pixel 4a (5G) Build/UP1A.231105.001.B2; wv) AppleWebKit/537.36 (KHTML, like Gecko) Version/4.0 Chrome/147.0.7727.57 Mobile Safari/537.36","379","674","240","","null","<div style=""font-size:60px;"">+</div>","null","fixation","","","","","","","","","","","",""
"html-button-response","9","22007","0.0-2.0-1.3","1015","48","post","6","evening","2026-04-07","2026-04-19","2026-04-25T03:51:34.691Z","Mozilla/5.0 (Linux; Android 14; Pixel 4a (5G) Build/UP1A.231105.001.B2; wv) AppleWebKit/537.36 (KHTML, like Gecko) Version/4.0 Chrome/147.0.7727.57 Mobile Safari/537.36","379","674","240","","3011","<div class=""prompt"" style=""font-size:24px; margin-bottom:20px;"">Which word describes you more?</div>","1","pairing","4","unpleasant","anxious","NegNeg","0","7","negative","negative","7","anxious","right","true"
"html-keyboard-response","10","22811","0.0-2.0-0.4","1015","48","post","6","evening","2026-04-07","2026-04-19","2026-04-25T03:51:34.691Z","Mozilla/5.0 (Linux; Android 14; Pixel 4a (5G) Build/UP1A.231105.001.B2; wv) AppleWebKit/537.36 (KHTML, like Gecko) Version/4.0 Chrome/147.0.7727.57 Mobile Safari/537.36","379","674","240","","null","<div style=""font-size:60px;"">+</div>","null","fixation","","","","","","","","","","","",""
"html-button-response","11","24264","0.0-2.0-1.4","1015","48","post","6","evening","2026-04-07","2026-04-19","2026-04-25T03:51:34.691Z","Mozilla/5.0 (Linux; Android 14; Pixel 4a (5G) Build/UP1A.231105.001.B2; wv) AppleWebKit/537.36 (KHTML, like Gecko) Version/4.0 Chrome/147.0.7727.57 Mobile Safari/537.36","379","674","240","","1450","<div class=""prompt"" style=""font-size:24px; margin-bottom:20px;"">Which word describes you more?</div>","1","pairing","5","lifeless","helper","PosNeg","0","100","negative","positive","100","helper","right","true"
"html-keyboard-response","12","25067","0.0-2.0-0.5","1015","48","post","6","evening","2026-04-07","2026-04-19","2026-04-25T03:51:34.691Z","Mozilla/5.0 (Linux; Android 14; Pixel 4a (5G) Build/UP1A.231105.001.B2; wv) AppleWebKit/537.36 (KHTML, like Gecko) Version/4.0 Chrome/147.0.7727.57 Mobile Safari/537.36","379","674","240","","null","<div style=""font-size:60px;"">+</div>","null","fixation","","","","","","","","","","","",""
"html-button-response","13","26330","0.0-2.0-1.5","1015","48","post","6","evening","2026-04-07","2026-04-19","2026-04-25T03:51:34.691Z","Mozilla/5.0 (Linux; Android 14; Pixel 4a (5G) Build/UP1A.231105.001.B2; wv) AppleWebKit/537.36 (KHTML, like Gecko) Version/4.0 Chrome/147.0.7727.57 Mobile Safari/537.36","379","674","240","","1252","<div class=""prompt"" style=""font-size:24px; margin-bottom:20px;"">Which word describes you more?</div>","1","pairing","6","empty","visionary","PosNeg","0","100","negative","positive","100","visionary","right","true"
"html-keyboard-response","14","27133","0.0-2.0-0.6","1015","48","post","6","evening","2026-04-07","2026-04-19","2026-04-25T03:51:34.691Z","Mozilla/5.0 (Linux; Android 14; Pixel 4a (5G) Build/UP1A.231105.001.B2; wv) AppleWebKit/537.36 (KHTML, like Gecko) Version/4.0 Chrome/147.0.7727.57 Mobile Safari/537.36","379","674","240","","null","<div style=""font-size:60px;"">+</div>","null","fixation","","","","","","","","","","","",""
"html-button-response","15","28276","0.0-2.0-1.6","1015","48","post","6","evening","2026-04-07","2026-04-19","2026-04-25T03:51:34.691Z","Mozilla/5.0 (Linux; Android 14; Pixel 4a (5G) Build/UP1A.231105.001.B2; wv) AppleWebKit/537.36 (KHTML, like Gecko) Version/4.0 Chrome/147.0.7727.57 Mobile Safari/537.36","379","674","240","","1140","<div class=""prompt"" style=""font-size:24px; margin-bottom:20px;"">Which word describes you more?</div>","1","pairing","7","unwanted","awkward","NegNeg","0","70","negative","negative","70","awkward","right","true"
"html-keyboard-response","16","29081","0.0-2.0-0.7","1015","48","post","6","evening","2026-04-07","2026-04-19","2026-04-25T03:51:34.691Z","Mozilla/5.0 (Linux; Android 14; Pixel 4a (5G) Build/UP1A.231105.001.B2; wv) AppleWebKit/537.36 (KHTML, like Gecko) Version/4.0 Chrome/147.0.7727.57 Mobile Safari/537.36","379","674","240","","null","<div style=""font-size:60px;"">+</div>","null","fixation","","","","","","","","","","","",""
"html-button-response","17","30288","0.0-2.0-1.7","1015","48","post","6","evening","2026-04-07","2026-04-19","2026-04-25T03:51:34.691Z","Mozilla/5.0 (Linux; Android 14; Pixel 4a (5G) Build/UP1A.231105.001.B2; wv) AppleWebKit/537.36 (KHTML, like Gecko) Version/4.0 Chrome/147.0.7727.57 Mobile Safari/537.36","379","674","240","","1205","<div class=""prompt"" style=""font-size:24px; margin-bottom:20px;"">Which word describes you more?</div>","1","pairing","8","easygoing","reliable","PosPos","48","100","positive","positive","52","reliable","right","true"
"html-keyboard-response","18","31094","0.0-2.0-0.8","1015","48","post","6","evening","2026-04-07","2026-04-19","2026-04-25T03:51:34.691Z","Mozilla/5.0 (Linux; Android 14; Pixel 4a (5G) Build/UP1A.231105.001.B2; wv) AppleWebKit/537.36 (KHTML, like Gecko) Version/4.0 Chrome/147.0.7727.57 Mobile Safari/537.36","379","674","240","","null","<div style=""font-size:60px;"">+</div>","null","fixation","","","","","","","","","","","",""
"html-button-response","19","32594","0.0-2.0-1.8","1015","48","post","6","evening","2026-04-07","2026-04-19","2026-04-25T03:51:34.691Z","Mozilla/5.0 (Linux; Android 14; Pixel 4a (5G) Build/UP1A.231105.001.B2; wv) AppleWebKit/537.36 (KHTML, like Gecko) Version/4.0 Chrome/147.0.7727.57 Mobile Safari/537.36","379","674","240","","1498","<div class=""prompt"" style=""font-size:24px; margin-bottom:20px;"">Which word describes you more?</div>","0","pairing","9","easygoing","disgusting","PosNeg","48","0","positive","negative","48","easygoing","left","true"
"html-keyboard-response","20","33396","0.0-2.0-0.9","1015","48","post","6","evening","2026-04-07","2026-04-19","2026-04-25T03:51:34.691Z","Mozilla/5.0 (Linux; Android 14; Pixel 4a (5G) Build/UP1A.231105.001.B2; wv) AppleWebKit/537.36 (KHTML, like Gecko) Version/4.0 Chrome/147.0.7727.57 Mobile Safari/537.36","379","674","240","","null","<div style=""font-size:60px;"">+</div>","null","fixation","","","","","","","","","","","",""
"html-button-response","21","34799","0.0-2.0-1.9","1015","48","post","6","evening","2026-04-07","2026-04-19","2026-04-25T03:51:34.691Z","Mozilla/5.0 (Linux; Android 14; Pixel 4a (5G) Build/UP1A.231105.001.B2; wv) AppleWebKit/537.36 (KHTML, like Gecko) Version/4.0 Chrome/147.0.7727.57 Mobile Safari/537.36","379","674","240","","1400","<div class=""prompt"" style=""font-size:24px; margin-bottom:20px;"">Which word describes you more?</div>","1","pairing","10","humorous","tolerant","PosPos","80","100","positive","positive","20","tolerant","right","true"
"html-keyboard-response","22","35603","0.0-2.0-0.10","1015","48","post","6","evening","2026-04-07","2026-04-19","2026-04-25T03:51:34.691Z","Mozilla/5.0 (Linux; Android 14; Pixel 4a (5G) Build/UP1A.231105.001.B2; wv) AppleWebKit/537.36 (KHTML, like Gecko) Version/4.0 Chrome/147.0.7727.57 Mobile Safari/537.36","379","674","240","","null","<div style=""font-size:60px;"">+</div>","null","fixation","","","","","","","","","","","",""
"html-button-response","23","36730","0.0-2.0-1.10","1015","48","post","6","evening","2026-04-07","2026-04-19","2026-04-25T03:51:34.691Z","Mozilla/5.0 (Linux; Android 14; Pixel 4a (5G) Build/UP1A.231105.001.B2; wv) AppleWebKit/537.36 (KHTML, like Gecko) Version/4.0 Chrome/147.0.7727.57 Mobile Safari/537.36","379","674","240","","1124","<div class=""prompt"" style=""font-size:24px; margin-bottom:20px;"">Which word describes you more?</div>","1","pairing","11","vermin","reliable","PosNeg","0","100","negative","positive","100","reliable","right","true"
"html-keyboard-response","24","37532","0.0-2.0-0.11","1015","48","post","6","evening","2026-04-07","2026-04-19","2026-04-25T03:51:34.691Z","Mozilla/5.0 (Linux; Android 14; Pixel 4a (5G) Build/UP1A.231105.001.B2; wv) AppleWebKit/537.36 (KHTML, like Gecko) Version/4.0 Chrome/147.0.7727.57 Mobile Safari/537.36","379","674","240","","null","<div style=""font-size:60px;"">+</div>","null","fixation","","","","","","","","","","","",""
"html-button-response","25","38873","0.0-2.0-1.11","1015","48","post","6","evening","2026-04-07","2026-04-19","2026-04-25T03:51:34.691Z","Mozilla/5.0 (Linux; Android 14; Pixel 4a (5G) Build/UP1A.231105.001.B2; wv) AppleWebKit/537.36 (KHTML, like Gecko) Version/4.0 Chrome/147.0.7727.57 Mobile Safari/537.36","379","674","240","","1337","<div class=""prompt"" style=""font-size:24px; margin-bottom:20px;"">Which word describes you more?</div>","0","pairing","12","authentic","regretful","PosNeg","100","0","positive","negative","100","authentic","left","true"
"html-keyboard-response","26","39675","0.0-2.0-0.12","1015","48","post","6","evening","2026-04-07","2026-04-19","2026-04-25T03:51:34.691Z","Mozilla/5.0 (Linux; Android 14; Pixel 4a (5G) Build/UP1A.231105.001.B2; wv) AppleWebKit/537.36 (KHTML, like Gecko) Version/4.0 Chrome/147.0.7727.57 Mobile Safari/537.36","379","674","240","","null","<div style=""font-size:60px;"">+</div>","null","fixation","","","","","","","","","","","",""
"html-button-response","27","40871","0.0-2.0-1.12","1015","48","post","6","evening","2026-04-07","2026-04-19","2026-04-25T03:51:34.691Z","Mozilla/5.0 (Linux; Android 14; Pixel 4a (5G) Build/UP1A.231105.001.B2; wv) AppleWebKit/537.36 (KHTML, like Gecko) Version/4.0 Chrome/147.0.7727.57 Mobile Safari/537.36","379","674","240","","1193","<div class=""prompt"" style=""font-size:24px; margin-bottom:20px;"">Which word describes you more?</div>","0","pairing","13","friend","headache","PosNeg","100","84","positive","negative","16","friend","left","true"
"html-keyboard-response","28","41673","0.0-2.0-0.13","1015","48","post","6","evening","2026-04-07","2026-04-19","2026-04-25T03:51:34.691Z","Mozilla/5.0 (Linux; Android 14; Pixel 4a (5G) Build/UP1A.231105.001.B2; wv) AppleWebKit/537.36 (KHTML, like Gecko) Version/4.0 Chrome/147.0.7727.57 Mobile Safari/537.36","379","674","240","","null","<div style=""font-size:60px;"">+</div>","null","fixation","","","","","","","","","","","",""
"html-button-response","29","43524","0.0-2.0-1.13","1015","48","post","6","evening","2026-04-07","2026-04-19","2026-04-25T03:51:34.691Z","Mozilla/5.0 (Linux; Android 14; Pixel 4a (5G) Build/UP1A.231105.001.B2; wv) AppleWebKit/537.36 (KHTML, like Gecko) Version/4.0 Chrome/147.0.7727.57 Mobile Safari/537.36","379","674","240","","1847","<div class=""prompt"" style=""font-size:24px; margin-bottom:20px;"">Which word describes you more?</div>","0","pairing","14","gentle","easygoing","PosPos","100","48","positive","positive","52","gentle","left","true"
"html-keyboard-response","30","44326","0.0-2.0-0.14","1015","48","post","6","evening","2026-04-07","2026-04-19","2026-04-25T03:51:34.691Z","Mozilla/5.0 (Linux; Android 14; Pixel 4a (5G) Build/UP1A.231105.001.B2; wv) AppleWebKit/537.36 (KHTML, like Gecko) Version/4.0 Chrome/147.0.7727.57 Mobile Safari/537.36","379","674","240","","null","<div style=""font-size:60px;"">+</div>","null","fixation","","","","","","","","","","","",""
"html-button-response","31","45813","0.0-2.0-1.14","1015","48","post","6","evening","2026-04-07","2026-04-19","2026-04-25T03:51:34.691Z","Mozilla/5.0 (Linux; Android 14; Pixel 4a (5G) Build/UP1A.231105.001.B2; wv) AppleWebKit/537.36 (KHTML, like Gecko) Version/4.0 Chrome/147.0.7727.57 Mobile Safari/537.36","379","674","240","","1484","<div class=""prompt"" style=""font-size:24px; margin-bottom:20px;"">Which word describes you more?</div>","0","pairing","15","outcast","phony","NegNeg","100","0","negative","negative","100","outcast","left","true"
"html-keyboard-response","32","46615","0.0-2.0-0.15","1015","48","post","6","evening","2026-04-07","2026-04-19","2026-04-25T03:51:34.691Z","Mozilla/5.0 (Linux; Android 14; Pixel 4a (5G) Build/UP1A.231105.001.B2; wv) AppleWebKit/537.36 (KHTML, like Gecko) Version/4.0 Chrome/147.0.7727.57 Mobile Safari/537.36","379","674","240","","null","<div style=""font-size:60px;"">+</div>","null","fixation","","","","","","","","","","","",""
"html-button-response","33","47950","0.0-2.0-1.15","1015","48","post","6","evening","2026-04-07","2026-04-19","2026-04-25T03:51:34.691Z","Mozilla/5.0 (Linux; Android 14; Pixel 4a (5G) Build/UP1A.231105.001.B2; wv) AppleWebKit/537.36 (KHTML, like Gecko) Version/4.0 Chrome/147.0.7727.57 Mobile Safari/537.36","379","674","240","","1331","<div class=""prompt"" style=""font-size:24px; margin-bottom:20px;"">Which word describes you more?</div>","0","pairing","16","alone","humorous","PosNeg","99","80","negative","positive","19","alone","left","true"
"html-keyboard-response","34","48753","0.0-2.0-0.16","1015","48","post","6","evening","2026-04-07","2026-04-19","2026-04-25T03:51:34.691Z","Mozilla/5.0 (Linux; Android 14; Pixel 4a (5G) Build/UP1A.231105.001.B2; wv) AppleWebKit/537.36 (KHTML, like Gecko) Version/4.0 Chrome/147.0.7727.57 Mobile Safari/537.36","379","674","240","","null","<div style=""font-size:60px;"">+</div>","null","fixation","","","","","","","","","","","",""
"html-button-response","35","49649","0.0-2.0-1.16","1015","48","post","6","evening","2026-04-07","2026-04-19","2026-04-25T03:51:34.691Z","Mozilla/5.0 (Linux; Android 14; Pixel 4a (5G) Build/UP1A.231105.001.B2; wv) AppleWebKit/537.36 (KHTML, like Gecko) Version/4.0 Chrome/147.0.7727.57 Mobile Safari/537.36","379","674","240","","893","<div class=""prompt"" style=""font-size:24px; margin-bottom:20px;"">Which word describes you more?</div>","0","pairing","17","champion","fool","PosNeg","100","0","positive","negative","100","champion","left","true"
"html-keyboard-response","36","50452","0.0-2.0-0.17","1015","48","post","6","evening","2026-04-07","2026-04-19","2026-04-25T03:51:34.691Z","Mozilla/5.0 (Linux; Android 14; Pixel 4a (5G) Build/UP1A.231105.001.B2; wv) AppleWebKit/537.36 (KHTML, like Gecko) Version/4.0 Chrome/147.0.7727.57 Mobile Safari/537.36","379","674","240","","null","<div style=""font-size:60px;"">+</div>","null","fixation","","","","","","","","","","","",""
"html-button-response","37","51647","0.0-2.0-1.17","1015","48","post","6","evening","2026-04-07","2026-04-19","2026-04-25T03:51:34.691Z","Mozilla/5.0 (Linux; Android 14; Pixel 4a (5G) Build/UP1A.231105.001.B2; wv) AppleWebKit/537.36 (KHTML, like Gecko) Version/4.0 Chrome/147.0.7727.57 Mobile Safari/537.36","379","674","240","","1191","<div class=""prompt"" style=""font-size:24px; margin-bottom:20px;"">Which word describes you more?</div>","1","pairing","18","unique","delight","PosPos","100","70","positive","positive","30","delight","right","true"
"html-keyboard-response","38","52450","0.0-2.0-0.18","1015","48","post","6","evening","2026-04-07","2026-04-19","2026-04-25T03:51:34.691Z","Mozilla/5.0 (Linux; Android 14; Pixel 4a (5G) Build/UP1A.231105.001.B2; wv) AppleWebKit/537.36 (KHTML, like Gecko) Version/4.0 Chrome/147.0.7727.57 Mobile Safari/537.36","379","674","240","","null","<div style=""font-size:60px;"">+</div>","null","fixation","","","","","","","","","","","",""
"html-button-response","39","55341","0.0-2.0-1.18","1015","48","post","6","evening","2026-04-07","2026-04-19","2026-04-25T03:51:34.691Z","Mozilla/5.0 (Linux; Android 14; Pixel 4a (5G) Build/UP1A.231105.001.B2; wv) AppleWebKit/537.36 (KHTML, like Gecko) Version/4.0 Chrome/147.0.7727.57 Mobile Safari/537.36","379","674","240","","2886","<div class=""prompt"" style=""font-size:24px; margin-bottom:20px;"">Which word describes you more?</div>","0","pairing","19","adorable","alone","PosNeg","74","99","positive","negative","25","adorable","left","true"
"html-keyboard-response","40","56144","0.0-2.0-0.19","1015","48","post","6","evening","2026-04-07","2026-04-19","2026-04-25T03:51:34.691Z","Mozilla/5.0 (Linux; Android 14; Pixel 4a (5G) Build/UP1A.231105.001.B2; wv) AppleWebKit/537.36 (KHTML, like Gecko) Version/4.0 Chrome/147.0.7727.57 Mobile Safari/537.36","379","674","240","","null","<div style=""font-size:60px;"">+</div>","null","fixation","","","","","","","","","","","",""
"html-button-response","41","58223","0.0-2.0-1.19","1015","48","post","6","evening","2026-04-07","2026-04-19","2026-04-25T03:51:34.691Z","Mozilla/5.0 (Linux; Android 14; Pixel 4a (5G) Build/UP1A.231105.001.B2; wv) AppleWebKit/537.36 (KHTML, like Gecko) Version/4.0 Chrome/147.0.7727.57 Mobile Safari/537.36","379","674","240","","2077","<div class=""prompt"" style=""font-size:24px; margin-bottom:20px;"">Which word describes you more?</div>","1","pairing","20","unbearable","blissful","PosNeg","10","73","negative","positive","63","blissful","right","true"
"html-keyboard-response","42","59024","0.0-2.0-0.20","1015","48","post","6","evening","2026-04-07","2026-04-19","2026-04-25T03:51:34.691Z","Mozilla/5.0 (Linux; Android 14; Pixel 4a (5G) Build/UP1A.231105.001.B2; wv) AppleWebKit/537.36 (KHTML, like Gecko) Version/4.0 Chrome/147.0.7727.57 Mobile Safari/537.36","379","674","240","","null","<div style=""font-size:60px;"">+</div>","null","fixation","","","","","","","","","","","",""
"html-button-response","43","60467","0.0-2.0-1.20","1015","48","post","6","evening","2026-04-07","2026-04-19","2026-04-25T03:51:34.691Z","Mozilla/5.0 (Linux; Android 14; Pixel 4a (5G) Build/UP1A.231105.001.B2; wv) AppleWebKit/537.36 (KHTML, like Gecko) Version/4.0 Chrome/147.0.7727.57 Mobile Safari/537.36","379","674","240","","1440","<div class=""prompt"" style=""font-size:24px; margin-bottom:20px;"">Which word describes you more?</div>","0","pairing","21","hesitant","violent","NegNeg","2","0","negative","negative","2","hesitant","left","true"
"html-keyboard-response","44","61270","0.0-2.0-0.21","1015","48","post","6","evening","2026-04-07","2026-04-19","2026-04-25T03:51:34.691Z","Mozilla/5.0 (Linux; Android 14; Pixel 4a (5G) Build/UP1A.231105.001.B2; wv) AppleWebKit/537.36 (KHTML, like Gecko) Version/4.0 Chrome/147.0.7727.57 Mobile Safari/537.36","379","674","240","","null","<div style=""font-size:60px;"">+</div>","null","fixation","","","","","","","","","","","",""
"html-button-response","45","62557","0.0-2.0-1.21","1015","48","post","6","evening","2026-04-07","2026-04-19","2026-04-25T03:51:34.691Z","Mozilla/5.0 (Linux; Android 14; Pixel 4a (5G) Build/UP1A.231105.001.B2; wv) AppleWebKit/537.36 (KHTML, like Gecko) Version/4.0 Chrome/147.0.7727.57 Mobile Safari/537.36","379","674","240","","1283","<div class=""prompt"" style=""font-size:24px; margin-bottom:20px;"">Which word describes you more?</div>","1","pairing","22","headache","wise","PosNeg","84","100","negative","positive","16","wise","right","true"
"html-keyboard-response","46","63360","0.0-2.0-0.22","1015","48","post","6","evening","2026-04-07","2026-04-19","2026-04-25T03:51:34.691Z","Mozilla/5.0 (Linux; Android 14; Pixel 4a (5G) Build/UP1A.231105.001.B2; wv) AppleWebKit/537.36 (KHTML, like Gecko) Version/4.0 Chrome/147.0.7727.57 Mobile Safari/537.36","379","674","240","","null","<div style=""font-size:60px;"">+</div>","null","fixation","","","","","","","","","","","",""
"html-button-response","47","65843","0.0-2.0-1.22","1015","48","post","6","evening","2026-04-07","2026-04-19","2026-04-25T03:51:34.691Z","Mozilla/5.0 (Linux; Android 14; Pixel 4a (5G) Build/UP1A.231105.001.B2; wv) AppleWebKit/537.36 (KHTML, like Gecko) Version/4.0 Chrome/147.0.7727.57 Mobile Safari/537.36","379","674","240","","2481","<div class=""prompt"" style=""font-size:24px; margin-bottom:20px;"">Which word describes you more?</div>","1","pairing","23","entertaining","lovable","PosPos","100","100","positive","positive","0","lovable","right","true"
"html-keyboard-response","48","66644","0.0-2.0-0.23","1015","48","post","6","evening","2026-04-07","2026-04-19","2026-04-25T03:51:34.691Z","Mozilla/5.0 (Linux; Android 14; Pixel 4a (5G) Build/UP1A.231105.001.B2; wv) AppleWebKit/537.36 (KHTML, like Gecko) Version/4.0 Chrome/147.0.7727.57 Mobile Safari/537.36","379","674","240","","null","<div style=""font-size:60px;"">+</div>","null","fixation","","","","","","","","","","","",""
"html-button-response","49","67752","0.0-2.0-1.23","1015","48","post","6","evening","2026-04-07","2026-04-19","2026-04-25T03:51:34.691Z","Mozilla/5.0 (Linux; Android 14; Pixel 4a (5G) Build/UP1A.231105.001.B2; wv) AppleWebKit/537.36 (KHTML, like Gecko) Version/4.0 Chrome/147.0.7727.57 Mobile Safari/537.36","379","674","240","","1105","<div class=""prompt"" style=""font-size:24px; margin-bottom:20px;"">Which word describes you more?</div>","0","pairing","24","committed","adorable","PosPos","100","74","positive","positive","26","committed","left","true"
"instructions","50","68453","0.0-3.0","1015","48","post","6","evening","2026-04-07","2026-04-19","2026-04-25T03:51:34.691Z","Mozilla/5.0 (Linux; Android 14; Pixel 4a (5G) Build/UP1A.231105.001.B2; wv) AppleWebKit/537.36 (KHTML, like Gecko) Version/4.0 Chrome/147.0.7727.57 Mobile Safari/537.36","379","674","240","[{""page_index"":0,""viewing_time"":699}]","699","","","","","","","","","","","","","","",""
