"trial_type","trial_index","time_elapsed","internal_node_id","PUNS_ID","session_number","session_phase","session_day","session_slot","ema_start_date","ema_post_start_date","experiment_start","browser","screen_width","screen_height","timezone_offset","view_history","rt","stimulus","response","which_experiment_phase","trial_number","left_word","right_word","valence","left_base_rating","right_base_rating","left_valence","right_valence","abs_diff","participant_response","chosen_side","valid_response"
"pavlovia","0","980","0.0-0.0","1015","45","post","5","evening","2026-04-07","2026-04-19","2026-04-24T03:47:27.775Z","Mozilla/5.0 (Linux; Android 14; Pixel 4a (5G) Build/UP1A.231105.001.B2; wv) AppleWebKit/537.36 (KHTML, like Gecko) Version/4.0 Chrome/147.0.7727.57 Mobile Safari/537.36","379","674","240","","","","","","","","","","","","","","","","",""
"instructions","1","3195","0.0-1.0","1015","45","post","5","evening","2026-04-07","2026-04-19","2026-04-24T03:47:27.775Z","Mozilla/5.0 (Linux; Android 14; Pixel 4a (5G) Build/UP1A.231105.001.B2; wv) AppleWebKit/537.36 (KHTML, like Gecko) Version/4.0 Chrome/147.0.7727.57 Mobile Safari/537.36","379","674","240","[{""page_index"":0,""viewing_time"":920},{""page_index"":1,""viewing_time"":127},{""page_index"":2,""viewing_time"":615},{""page_index"":3,""viewing_time"":546}]","2209","","","","","","","","","","","","","","",""
"html-keyboard-response","2","4000","0.0-2.0-0.0","1015","45","post","5","evening","2026-04-07","2026-04-19","2026-04-24T03:47:27.775Z","Mozilla/5.0 (Linux; Android 14; Pixel 4a (5G) Build/UP1A.231105.001.B2; wv) AppleWebKit/537.36 (KHTML, like Gecko) Version/4.0 Chrome/147.0.7727.57 Mobile Safari/537.36","379","674","240","","null","<div style=""font-size:60px;"">+</div>","null","fixation","","","","","","","","","","","",""
"html-button-response","3","5024","0.0-2.0-1.0","1015","45","post","5","evening","2026-04-07","2026-04-19","2026-04-24T03:47:27.775Z","Mozilla/5.0 (Linux; Android 14; Pixel 4a (5G) Build/UP1A.231105.001.B2; wv) AppleWebKit/537.36 (KHTML, like Gecko) Version/4.0 Chrome/147.0.7727.57 Mobile Safari/537.36","379","674","240","","1020","<div class=""prompt"" style=""font-size:24px; margin-bottom:20px;"">Which word describes you more?</div>","1","pairing","1","blissful","asset","PosPos","73","100","positive","positive","27","asset","right","true"
"html-keyboard-response","4","5828","0.0-2.0-0.1","1015","45","post","5","evening","2026-04-07","2026-04-19","2026-04-24T03:47:27.775Z","Mozilla/5.0 (Linux; Android 14; Pixel 4a (5G) Build/UP1A.231105.001.B2; wv) AppleWebKit/537.36 (KHTML, like Gecko) Version/4.0 Chrome/147.0.7727.57 Mobile Safari/537.36","379","674","240","","null","<div style=""font-size:60px;"">+</div>","null","fixation","","","","","","","","","","","",""
"html-button-response","5","6769","0.0-2.0-1.1","1015","45","post","5","evening","2026-04-07","2026-04-19","2026-04-24T03:47:27.775Z","Mozilla/5.0 (Linux; Android 14; Pixel 4a (5G) Build/UP1A.231105.001.B2; wv) AppleWebKit/537.36 (KHTML, like Gecko) Version/4.0 Chrome/147.0.7727.57 Mobile Safari/537.36","379","674","240","","937","<div class=""prompt"" style=""font-size:24px; margin-bottom:20px;"">Which word describes you more?</div>","1","pairing","2","sensible","flawless","PosPos","100","100","positive","positive","0","flawless","right","true"
"html-keyboard-response","6","7571","0.0-2.0-0.2","1015","45","post","5","evening","2026-04-07","2026-04-19","2026-04-24T03:47:27.775Z","Mozilla/5.0 (Linux; Android 14; Pixel 4a (5G) Build/UP1A.231105.001.B2; wv) AppleWebKit/537.36 (KHTML, like Gecko) Version/4.0 Chrome/147.0.7727.57 Mobile Safari/537.36","379","674","240","","null","<div style=""font-size:60px;"">+</div>","null","fixation","","","","","","","","","","","",""
"html-button-response","7","9006","0.0-2.0-1.2","1015","45","post","5","evening","2026-04-07","2026-04-19","2026-04-24T03:47:27.775Z","Mozilla/5.0 (Linux; Android 14; Pixel 4a (5G) Build/UP1A.231105.001.B2; wv) AppleWebKit/537.36 (KHTML, like Gecko) Version/4.0 Chrome/147.0.7727.57 Mobile Safari/537.36","379","674","240","","1430","<div class=""prompt"" style=""font-size:24px; margin-bottom:20px;"">Which word describes you more?</div>","0","pairing","3","goodwilled","repulsive","PosNeg","100","0","positive","negative","100","goodwilled","left","true"
"html-keyboard-response","8","9809","0.0-2.0-0.3","1015","45","post","5","evening","2026-04-07","2026-04-19","2026-04-24T03:47:27.775Z","Mozilla/5.0 (Linux; Android 14; Pixel 4a (5G) Build/UP1A.231105.001.B2; wv) AppleWebKit/537.36 (KHTML, like Gecko) Version/4.0 Chrome/147.0.7727.57 Mobile Safari/537.36","379","674","240","","null","<div style=""font-size:60px;"">+</div>","null","fixation","","","","","","","","","","","",""
"html-button-response","9","10857","0.0-2.0-1.3","1015","45","post","5","evening","2026-04-07","2026-04-19","2026-04-24T03:47:27.775Z","Mozilla/5.0 (Linux; Android 14; Pixel 4a (5G) Build/UP1A.231105.001.B2; wv) AppleWebKit/537.36 (KHTML, like Gecko) Version/4.0 Chrome/147.0.7727.57 Mobile Safari/537.36","379","674","240","","1047","<div class=""prompt"" style=""font-size:24px; margin-bottom:20px;"">Which word describes you more?</div>","1","pairing","4","unlucky","brave","PosNeg","65","100","negative","positive","35","brave","right","true"
"html-keyboard-response","10","11659","0.0-2.0-0.4","1015","45","post","5","evening","2026-04-07","2026-04-19","2026-04-24T03:47:27.775Z","Mozilla/5.0 (Linux; Android 14; Pixel 4a (5G) Build/UP1A.231105.001.B2; wv) AppleWebKit/537.36 (KHTML, like Gecko) Version/4.0 Chrome/147.0.7727.57 Mobile Safari/537.36","379","674","240","","null","<div style=""font-size:60px;"">+</div>","null","fixation","","","","","","","","","","","",""
"html-button-response","11","12412","0.0-2.0-1.4","1015","45","post","5","evening","2026-04-07","2026-04-19","2026-04-24T03:47:27.775Z","Mozilla/5.0 (Linux; Android 14; Pixel 4a (5G) Build/UP1A.231105.001.B2; wv) AppleWebKit/537.36 (KHTML, like Gecko) Version/4.0 Chrome/147.0.7727.57 Mobile Safari/537.36","379","674","240","","748","<div class=""prompt"" style=""font-size:24px; margin-bottom:20px;"">Which word describes you more?</div>","0","pairing","5","grateful","easygoing","PosPos","100","48","positive","positive","52","grateful","left","true"
"html-keyboard-response","12","13214","0.0-2.0-0.5","1015","45","post","5","evening","2026-04-07","2026-04-19","2026-04-24T03:47:27.775Z","Mozilla/5.0 (Linux; Android 14; Pixel 4a (5G) Build/UP1A.231105.001.B2; wv) AppleWebKit/537.36 (KHTML, like Gecko) Version/4.0 Chrome/147.0.7727.57 Mobile Safari/537.36","379","674","240","","null","<div style=""font-size:60px;"">+</div>","null","fixation","","","","","","","","","","","",""
"html-button-response","13","18220","0.0-2.0-1.5","1015","45","post","5","evening","2026-04-07","2026-04-19","2026-04-24T03:47:27.775Z","Mozilla/5.0 (Linux; Android 14; Pixel 4a (5G) Build/UP1A.231105.001.B2; wv) AppleWebKit/537.36 (KHTML, like Gecko) Version/4.0 Chrome/147.0.7727.57 Mobile Safari/537.36","379","674","240","","null","<div class=""prompt"" style=""font-size:24px; margin-bottom:20px;"">Which word describes you more?</div>","null","pairing","6","malicious","unbearable","NegNeg","0","10","negative","negative","10","null","null","false"
"html-keyboard-response","14","19025","0.0-2.0-0.6","1015","45","post","5","evening","2026-04-07","2026-04-19","2026-04-24T03:47:27.775Z","Mozilla/5.0 (Linux; Android 14; Pixel 4a (5G) Build/UP1A.231105.001.B2; wv) AppleWebKit/537.36 (KHTML, like Gecko) Version/4.0 Chrome/147.0.7727.57 Mobile Safari/537.36","379","674","240","","null","<div style=""font-size:60px;"">+</div>","null","fixation","","","","","","","","","","","",""
"html-button-response","15","20463","0.0-2.0-1.6","1015","45","post","5","evening","2026-04-07","2026-04-19","2026-04-24T03:47:27.775Z","Mozilla/5.0 (Linux; Android 14; Pixel 4a (5G) Build/UP1A.231105.001.B2; wv) AppleWebKit/537.36 (KHTML, like Gecko) Version/4.0 Chrome/147.0.7727.57 Mobile Safari/537.36","379","674","240","","1436","<div class=""prompt"" style=""font-size:24px; margin-bottom:20px;"">Which word describes you more?</div>","0","pairing","7","anxious","bitter","NegNeg","7","0","negative","negative","7","anxious","left","true"
"html-keyboard-response","16","21266","0.0-2.0-0.7","1015","45","post","5","evening","2026-04-07","2026-04-19","2026-04-24T03:47:27.775Z","Mozilla/5.0 (Linux; Android 14; Pixel 4a (5G) Build/UP1A.231105.001.B2; wv) AppleWebKit/537.36 (KHTML, like Gecko) Version/4.0 Chrome/147.0.7727.57 Mobile Safari/537.36","379","674","240","","null","<div style=""font-size:60px;"">+</div>","null","fixation","","","","","","","","","","","",""
"html-button-response","17","22273","0.0-2.0-1.7","1015","45","post","5","evening","2026-04-07","2026-04-19","2026-04-24T03:47:27.775Z","Mozilla/5.0 (Linux; Android 14; Pixel 4a (5G) Build/UP1A.231105.001.B2; wv) AppleWebKit/537.36 (KHTML, like Gecko) Version/4.0 Chrome/147.0.7727.57 Mobile Safari/537.36","379","674","240","","1004","<div class=""prompt"" style=""font-size:24px; margin-bottom:20px;"">Which word describes you more?</div>","1","pairing","8","adventurous","credible","PosPos","100","100","positive","positive","0","credible","right","true"
"html-keyboard-response","18","23076","0.0-2.0-0.8","1015","45","post","5","evening","2026-04-07","2026-04-19","2026-04-24T03:47:27.775Z","Mozilla/5.0 (Linux; Android 14; Pixel 4a (5G) Build/UP1A.231105.001.B2; wv) AppleWebKit/537.36 (KHTML, like Gecko) Version/4.0 Chrome/147.0.7727.57 Mobile Safari/537.36","379","674","240","","null","<div style=""font-size:60px;"">+</div>","null","fixation","","","","","","","","","","","",""
"html-button-response","19","23919","0.0-2.0-1.8","1015","45","post","5","evening","2026-04-07","2026-04-19","2026-04-24T03:47:27.775Z","Mozilla/5.0 (Linux; Android 14; Pixel 4a (5G) Build/UP1A.231105.001.B2; wv) AppleWebKit/537.36 (KHTML, like Gecko) Version/4.0 Chrome/147.0.7727.57 Mobile Safari/537.36","379","674","240","","840","<div class=""prompt"" style=""font-size:24px; margin-bottom:20px;"">Which word describes you more?</div>","0","pairing","9","delight","easygoing","PosPos","70","48","positive","positive","22","delight","left","true"
"html-keyboard-response","20","24722","0.0-2.0-0.9","1015","45","post","5","evening","2026-04-07","2026-04-19","2026-04-24T03:47:27.775Z","Mozilla/5.0 (Linux; Android 14; Pixel 4a (5G) Build/UP1A.231105.001.B2; wv) AppleWebKit/537.36 (KHTML, like Gecko) Version/4.0 Chrome/147.0.7727.57 Mobile Safari/537.36","379","674","240","","null","<div style=""font-size:60px;"">+</div>","null","fixation","","","","","","","","","","","",""
"html-button-response","21","25916","0.0-2.0-1.9","1015","45","post","5","evening","2026-04-07","2026-04-19","2026-04-24T03:47:27.775Z","Mozilla/5.0 (Linux; Android 14; Pixel 4a (5G) Build/UP1A.231105.001.B2; wv) AppleWebKit/537.36 (KHTML, like Gecko) Version/4.0 Chrome/147.0.7727.57 Mobile Safari/537.36","379","674","240","","1190","<div class=""prompt"" style=""font-size:24px; margin-bottom:20px;"">Which word describes you more?</div>","1","pairing","10","unwanted","merciful","PosNeg","0","100","negative","positive","100","merciful","right","true"
"html-keyboard-response","22","26718","0.0-2.0-0.10","1015","45","post","5","evening","2026-04-07","2026-04-19","2026-04-24T03:47:27.775Z","Mozilla/5.0 (Linux; Android 14; Pixel 4a (5G) Build/UP1A.231105.001.B2; wv) AppleWebKit/537.36 (KHTML, like Gecko) Version/4.0 Chrome/147.0.7727.57 Mobile Safari/537.36","379","674","240","","null","<div style=""font-size:60px;"">+</div>","null","fixation","","","","","","","","","","","",""
"html-button-response","23","27819","0.0-2.0-1.10","1015","45","post","5","evening","2026-04-07","2026-04-19","2026-04-24T03:47:27.775Z","Mozilla/5.0 (Linux; Android 14; Pixel 4a (5G) Build/UP1A.231105.001.B2; wv) AppleWebKit/537.36 (KHTML, like Gecko) Version/4.0 Chrome/147.0.7727.57 Mobile Safari/537.36","379","674","240","","1096","<div class=""prompt"" style=""font-size:24px; margin-bottom:20px;"">Which word describes you more?</div>","1","pairing","11","negligent","unlucky","NegNeg","0","65","negative","negative","65","unlucky","right","true"
"html-keyboard-response","24","28621","0.0-2.0-0.11","1015","45","post","5","evening","2026-04-07","2026-04-19","2026-04-24T03:47:27.775Z","Mozilla/5.0 (Linux; Android 14; Pixel 4a (5G) Build/UP1A.231105.001.B2; wv) AppleWebKit/537.36 (KHTML, like Gecko) Version/4.0 Chrome/147.0.7727.57 Mobile Safari/537.36","379","674","240","","null","<div style=""font-size:60px;"">+</div>","null","fixation","","","","","","","","","","","",""
"html-button-response","25","29657","0.0-2.0-1.11","1015","45","post","5","evening","2026-04-07","2026-04-19","2026-04-24T03:47:27.775Z","Mozilla/5.0 (Linux; Android 14; Pixel 4a (5G) Build/UP1A.231105.001.B2; wv) AppleWebKit/537.36 (KHTML, like Gecko) Version/4.0 Chrome/147.0.7727.57 Mobile Safari/537.36","379","674","240","","1031","<div class=""prompt"" style=""font-size:24px; margin-bottom:20px;"">Which word describes you more?</div>","0","pairing","12","unlucky","unwanted","NegNeg","65","0","negative","negative","65","unlucky","left","true"
"html-keyboard-response","26","30462","0.0-2.0-0.12","1015","45","post","5","evening","2026-04-07","2026-04-19","2026-04-24T03:47:27.775Z","Mozilla/5.0 (Linux; Android 14; Pixel 4a (5G) Build/UP1A.231105.001.B2; wv) AppleWebKit/537.36 (KHTML, like Gecko) Version/4.0 Chrome/147.0.7727.57 Mobile Safari/537.36","379","674","240","","null","<div style=""font-size:60px;"">+</div>","null","fixation","","","","","","","","","","","",""
"html-button-response","27","31510","0.0-2.0-1.12","1015","45","post","5","evening","2026-04-07","2026-04-19","2026-04-24T03:47:27.775Z","Mozilla/5.0 (Linux; Android 14; Pixel 4a (5G) Build/UP1A.231105.001.B2; wv) AppleWebKit/537.36 (KHTML, like Gecko) Version/4.0 Chrome/147.0.7727.57 Mobile Safari/537.36","379","674","240","","1045","<div class=""prompt"" style=""font-size:24px; margin-bottom:20px;"">Which word describes you more?</div>","0","pairing","13","credible","hesitant","PosNeg","100","2","positive","negative","98","credible","left","true"
"html-keyboard-response","28","32314","0.0-2.0-0.13","1015","45","post","5","evening","2026-04-07","2026-04-19","2026-04-24T03:47:27.775Z","Mozilla/5.0 (Linux; Android 14; Pixel 4a (5G) Build/UP1A.231105.001.B2; wv) AppleWebKit/537.36 (KHTML, like Gecko) Version/4.0 Chrome/147.0.7727.57 Mobile Safari/537.36","379","674","240","","null","<div style=""font-size:60px;"">+</div>","null","fixation","","","","","","","","","","","",""
"html-button-response","29","33815","0.0-2.0-1.13","1015","45","post","5","evening","2026-04-07","2026-04-19","2026-04-24T03:47:27.775Z","Mozilla/5.0 (Linux; Android 14; Pixel 4a (5G) Build/UP1A.231105.001.B2; wv) AppleWebKit/537.36 (KHTML, like Gecko) Version/4.0 Chrome/147.0.7727.57 Mobile Safari/537.36","379","674","240","","1498","<div class=""prompt"" style=""font-size:24px; margin-bottom:20px;"">Which word describes you more?</div>","0","pairing","14","headache","empty","NegNeg","84","0","negative","negative","84","headache","left","true"
"html-keyboard-response","30","34619","0.0-2.0-0.14","1015","45","post","5","evening","2026-04-07","2026-04-19","2026-04-24T03:47:27.775Z","Mozilla/5.0 (Linux; Android 14; Pixel 4a (5G) Build/UP1A.231105.001.B2; wv) AppleWebKit/537.36 (KHTML, like Gecko) Version/4.0 Chrome/147.0.7727.57 Mobile Safari/537.36","379","674","240","","null","<div style=""font-size:60px;"">+</div>","null","fixation","","","","","","","","","","","",""
"html-button-response","31","35697","0.0-2.0-1.14","1015","45","post","5","evening","2026-04-07","2026-04-19","2026-04-24T03:47:27.775Z","Mozilla/5.0 (Linux; Android 14; Pixel 4a (5G) Build/UP1A.231105.001.B2; wv) AppleWebKit/537.36 (KHTML, like Gecko) Version/4.0 Chrome/147.0.7727.57 Mobile Safari/537.36","379","674","240","","1075","<div class=""prompt"" style=""font-size:24px; margin-bottom:20px;"">Which word describes you more?</div>","1","pairing","15","bully","authentic","PosNeg","0","100","negative","positive","100","authentic","right","true"
"html-keyboard-response","32","36500","0.0-2.0-0.15","1015","45","post","5","evening","2026-04-07","2026-04-19","2026-04-24T03:47:27.775Z","Mozilla/5.0 (Linux; Android 14; Pixel 4a (5G) Build/UP1A.231105.001.B2; wv) AppleWebKit/537.36 (KHTML, like Gecko) Version/4.0 Chrome/147.0.7727.57 Mobile Safari/537.36","379","674","240","","null","<div style=""font-size:60px;"">+</div>","null","fixation","","","","","","","","","","","",""
"html-button-response","33","37698","0.0-2.0-1.15","1015","45","post","5","evening","2026-04-07","2026-04-19","2026-04-24T03:47:27.775Z","Mozilla/5.0 (Linux; Android 14; Pixel 4a (5G) Build/UP1A.231105.001.B2; wv) AppleWebKit/537.36 (KHTML, like Gecko) Version/4.0 Chrome/147.0.7727.57 Mobile Safari/537.36","379","674","240","","1196","<div class=""prompt"" style=""font-size:24px; margin-bottom:20px;"">Which word describes you more?</div>","0","pairing","16","outcast","graceful","PosNeg","100","91","negative","positive","9","outcast","left","true"
"html-keyboard-response","34","38500","0.0-2.0-0.16","1015","45","post","5","evening","2026-04-07","2026-04-19","2026-04-24T03:47:27.775Z","Mozilla/5.0 (Linux; Android 14; Pixel 4a (5G) Build/UP1A.231105.001.B2; wv) AppleWebKit/537.36 (KHTML, like Gecko) Version/4.0 Chrome/147.0.7727.57 Mobile Safari/537.36","379","674","240","","null","<div style=""font-size:60px;"">+</div>","null","fixation","","","","","","","","","","","",""
"html-button-response","35","39557","0.0-2.0-1.16","1015","45","post","5","evening","2026-04-07","2026-04-19","2026-04-24T03:47:27.775Z","Mozilla/5.0 (Linux; Android 14; Pixel 4a (5G) Build/UP1A.231105.001.B2; wv) AppleWebKit/537.36 (KHTML, like Gecko) Version/4.0 Chrome/147.0.7727.57 Mobile Safari/537.36","379","674","240","","1054","<div class=""prompt"" style=""font-size:24px; margin-bottom:20px;"">Which word describes you more?</div>","0","pairing","17","delight","unbearable","PosNeg","70","10","positive","negative","60","delight","left","true"
"html-keyboard-response","36","40360","0.0-2.0-0.17","1015","45","post","5","evening","2026-04-07","2026-04-19","2026-04-24T03:47:27.775Z","Mozilla/5.0 (Linux; Android 14; Pixel 4a (5G) Build/UP1A.231105.001.B2; wv) AppleWebKit/537.36 (KHTML, like Gecko) Version/4.0 Chrome/147.0.7727.57 Mobile Safari/537.36","379","674","240","","null","<div style=""font-size:60px;"">+</div>","null","fixation","","","","","","","","","","","",""
"html-button-response","37","42862","0.0-2.0-1.17","1015","45","post","5","evening","2026-04-07","2026-04-19","2026-04-24T03:47:27.775Z","Mozilla/5.0 (Linux; Android 14; Pixel 4a (5G) Build/UP1A.231105.001.B2; wv) AppleWebKit/537.36 (KHTML, like Gecko) Version/4.0 Chrome/147.0.7727.57 Mobile Safari/537.36","379","674","240","","2500","<div class=""prompt"" style=""font-size:24px; margin-bottom:20px;"">Which word describes you more?</div>","1","pairing","18","blissful","outcast","PosNeg","73","100","positive","negative","27","outcast","right","true"
"html-keyboard-response","38","43665","0.0-2.0-0.18","1015","45","post","5","evening","2026-04-07","2026-04-19","2026-04-24T03:47:27.775Z","Mozilla/5.0 (Linux; Android 14; Pixel 4a (5G) Build/UP1A.231105.001.B2; wv) AppleWebKit/537.36 (KHTML, like Gecko) Version/4.0 Chrome/147.0.7727.57 Mobile Safari/537.36","379","674","240","","null","<div style=""font-size:60px;"">+</div>","null","fixation","","","","","","","","","","","",""
"html-button-response","39","45383","0.0-2.0-1.18","1015","45","post","5","evening","2026-04-07","2026-04-19","2026-04-24T03:47:27.775Z","Mozilla/5.0 (Linux; Android 14; Pixel 4a (5G) Build/UP1A.231105.001.B2; wv) AppleWebKit/537.36 (KHTML, like Gecko) Version/4.0 Chrome/147.0.7727.57 Mobile Safari/537.36","379","674","240","","1713","<div class=""prompt"" style=""font-size:24px; margin-bottom:20px;"">Which word describes you more?</div>","1","pairing","19","easygoing","talented","PosPos","48","100","positive","positive","52","talented","right","true"
"html-keyboard-response","40","46186","0.0-2.0-0.19","1015","45","post","5","evening","2026-04-07","2026-04-19","2026-04-24T03:47:27.775Z","Mozilla/5.0 (Linux; Android 14; Pixel 4a (5G) Build/UP1A.231105.001.B2; wv) AppleWebKit/537.36 (KHTML, like Gecko) Version/4.0 Chrome/147.0.7727.57 Mobile Safari/537.36","379","674","240","","null","<div style=""font-size:60px;"">+</div>","null","fixation","","","","","","","","","","","",""
"html-button-response","41","47234","0.0-2.0-1.19","1015","45","post","5","evening","2026-04-07","2026-04-19","2026-04-24T03:47:27.775Z","Mozilla/5.0 (Linux; Android 14; Pixel 4a (5G) Build/UP1A.231105.001.B2; wv) AppleWebKit/537.36 (KHTML, like Gecko) Version/4.0 Chrome/147.0.7727.57 Mobile Safari/537.36","379","674","240","","1044","<div class=""prompt"" style=""font-size:24px; margin-bottom:20px;"">Which word describes you more?</div>","0","pairing","20","alone","carefree","PosNeg","99","100","negative","positive","1","alone","left","true"
"html-keyboard-response","42","48037","0.0-2.0-0.20","1015","45","post","5","evening","2026-04-07","2026-04-19","2026-04-24T03:47:27.775Z","Mozilla/5.0 (Linux; Android 14; Pixel 4a (5G) Build/UP1A.231105.001.B2; wv) AppleWebKit/537.36 (KHTML, like Gecko) Version/4.0 Chrome/147.0.7727.57 Mobile Safari/537.36","379","674","240","","null","<div style=""font-size:60px;"">+</div>","null","fixation","","","","","","","","","","","",""
"html-button-response","43","49529","0.0-2.0-1.20","1015","45","post","5","evening","2026-04-07","2026-04-19","2026-04-24T03:47:27.775Z","Mozilla/5.0 (Linux; Android 14; Pixel 4a (5G) Build/UP1A.231105.001.B2; wv) AppleWebKit/537.36 (KHTML, like Gecko) Version/4.0 Chrome/147.0.7727.57 Mobile Safari/537.36","379","674","240","","1488","<div class=""prompt"" style=""font-size:24px; margin-bottom:20px;"">Which word describes you more?</div>","1","pairing","21","fun","awkward","PosNeg","100","70","positive","negative","30","awkward","right","true"
"html-keyboard-response","44","50332","0.0-2.0-0.21","1015","45","post","5","evening","2026-04-07","2026-04-19","2026-04-24T03:47:27.775Z","Mozilla/5.0 (Linux; Android 14; Pixel 4a (5G) Build/UP1A.231105.001.B2; wv) AppleWebKit/537.36 (KHTML, like Gecko) Version/4.0 Chrome/147.0.7727.57 Mobile Safari/537.36","379","674","240","","null","<div style=""font-size:60px;"">+</div>","null","fixation","","","","","","","","","","","",""
"html-button-response","45","51565","0.0-2.0-1.21","1015","45","post","5","evening","2026-04-07","2026-04-19","2026-04-24T03:47:27.775Z","Mozilla/5.0 (Linux; Android 14; Pixel 4a (5G) Build/UP1A.231105.001.B2; wv) AppleWebKit/537.36 (KHTML, like Gecko) Version/4.0 Chrome/147.0.7727.57 Mobile Safari/537.36","379","674","240","","1231","<div class=""prompt"" style=""font-size:24px; margin-bottom:20px;"">Which word describes you more?</div>","1","pairing","22","hateful","outcast","NegNeg","0","100","negative","negative","100","outcast","right","true"
"html-keyboard-response","46","52370","0.0-2.0-0.22","1015","45","post","5","evening","2026-04-07","2026-04-19","2026-04-24T03:47:27.775Z","Mozilla/5.0 (Linux; Android 14; Pixel 4a (5G) Build/UP1A.231105.001.B2; wv) AppleWebKit/537.36 (KHTML, like Gecko) Version/4.0 Chrome/147.0.7727.57 Mobile Safari/537.36","379","674","240","","null","<div style=""font-size:60px;"">+</div>","null","fixation","","","","","","","","","","","",""
"html-button-response","47","53346","0.0-2.0-1.22","1015","45","post","5","evening","2026-04-07","2026-04-19","2026-04-24T03:47:27.775Z","Mozilla/5.0 (Linux; Android 14; Pixel 4a (5G) Build/UP1A.231105.001.B2; wv) AppleWebKit/537.36 (KHTML, like Gecko) Version/4.0 Chrome/147.0.7727.57 Mobile Safari/537.36","379","674","240","","972","<div class=""prompt"" style=""font-size:24px; margin-bottom:20px;"">Which word describes you more?</div>","0","pairing","23","asset","selfish","PosNeg","100","0","positive","negative","100","asset","left","true"
"html-keyboard-response","48","54148","0.0-2.0-0.23","1015","45","post","5","evening","2026-04-07","2026-04-19","2026-04-24T03:47:27.775Z","Mozilla/5.0 (Linux; Android 14; Pixel 4a (5G) Build/UP1A.231105.001.B2; wv) AppleWebKit/537.36 (KHTML, like Gecko) Version/4.0 Chrome/147.0.7727.57 Mobile Safari/537.36","379","674","240","","null","<div style=""font-size:60px;"">+</div>","null","fixation","","","","","","","","","","","",""
"html-button-response","49","55684","0.0-2.0-1.23","1015","45","post","5","evening","2026-04-07","2026-04-19","2026-04-24T03:47:27.775Z","Mozilla/5.0 (Linux; Android 14; Pixel 4a (5G) Build/UP1A.231105.001.B2; wv) AppleWebKit/537.36 (KHTML, like Gecko) Version/4.0 Chrome/147.0.7727.57 Mobile Safari/537.36","379","674","240","","1532","<div class=""prompt"" style=""font-size:24px; margin-bottom:20px;"">Which word describes you more?</div>","1","pairing","24","heartbroken","friend","PosNeg","0","100","negative","positive","100","friend","right","true"
"instructions","50","56385","0.0-3.0","1015","45","post","5","evening","2026-04-07","2026-04-19","2026-04-24T03:47:27.775Z","Mozilla/5.0 (Linux; Android 14; Pixel 4a (5G) Build/UP1A.231105.001.B2; wv) AppleWebKit/537.36 (KHTML, like Gecko) Version/4.0 Chrome/147.0.7727.57 Mobile Safari/537.36","379","674","240","[{""page_index"":0,""viewing_time"":699}]","700","","","","","","","","","","","","","","",""
