"trial_type","trial_index","time_elapsed","internal_node_id","PUNS_ID","session_number","session_phase","session_day","session_slot","ema_start_date","ema_post_start_date","experiment_start","browser","screen_width","screen_height","timezone_offset","view_history","rt","stimulus","response","which_experiment_phase","trial_number","left_word","right_word","valence","left_base_rating","right_base_rating","left_valence","right_valence","abs_diff","participant_response","chosen_side","valid_response"
"pavlovia","0","1629","0.0-0.0","1067","7","pre","3","morning","2026-04-08","2026-04-21","2026-04-10T05:09:37.391Z","Mozilla/5.0 (iPhone; CPU iPhone OS 18_7 like Mac OS X) AppleWebKit/605.1.15 (KHTML, like Gecko) Mobile/15E148","358","632","240","","","","","","","","","","","","","","","","",""
"instructions","1","6494","0.0-1.0","1067","7","pre","3","morning","2026-04-08","2026-04-21","2026-04-10T05:09:37.391Z","Mozilla/5.0 (iPhone; CPU iPhone OS 18_7 like Mac OS X) AppleWebKit/605.1.15 (KHTML, like Gecko) Mobile/15E148","358","632","240","[{""page_index"":0,""viewing_time"":1181},{""page_index"":1,""viewing_time"":1114},{""page_index"":2,""viewing_time"":1745},{""page_index"":3,""viewing_time"":817}]","4858","","","","","","","","","","","","","","",""
"html-keyboard-response","2","7303","0.0-2.0-0.0","1067","7","pre","3","morning","2026-04-08","2026-04-21","2026-04-10T05:09:37.391Z","Mozilla/5.0 (iPhone; CPU iPhone OS 18_7 like Mac OS X) AppleWebKit/605.1.15 (KHTML, like Gecko) Mobile/15E148","358","632","240","","null","<div style=""font-size:60px;"">+</div>","null","fixation","","","","","","","","","","","",""
"html-button-response","3","8379","0.0-2.0-1.0","1067","7","pre","3","morning","2026-04-08","2026-04-21","2026-04-10T05:09:37.391Z","Mozilla/5.0 (iPhone; CPU iPhone OS 18_7 like Mac OS X) AppleWebKit/605.1.15 (KHTML, like Gecko) Mobile/15E148","358","632","240","","1070","<div class=""prompt"" style=""font-size:24px; margin-bottom:20px;"">Which word describes you more?</div>","0","pairing","1","sensible","awkward","PosNeg","87","74","positive","negative","13","sensible","left","true"
"html-keyboard-response","4","9182","0.0-2.0-0.1","1067","7","pre","3","morning","2026-04-08","2026-04-21","2026-04-10T05:09:37.391Z","Mozilla/5.0 (iPhone; CPU iPhone OS 18_7 like Mac OS X) AppleWebKit/605.1.15 (KHTML, like Gecko) Mobile/15E148","358","632","240","","null","<div style=""font-size:60px;"">+</div>","null","fixation","","","","","","","","","","","",""
"html-button-response","5","10511","0.0-2.0-1.1","1067","7","pre","3","morning","2026-04-08","2026-04-21","2026-04-10T05:09:37.391Z","Mozilla/5.0 (iPhone; CPU iPhone OS 18_7 like Mac OS X) AppleWebKit/605.1.15 (KHTML, like Gecko) Mobile/15E148","358","632","240","","1323","<div class=""prompt"" style=""font-size:24px; margin-bottom:20px;"">Which word describes you more?</div>","1","pairing","2","irritating","decisive","PosNeg","72","30","negative","positive","42","decisive","right","true"
"html-keyboard-response","6","11314","0.0-2.0-0.2","1067","7","pre","3","morning","2026-04-08","2026-04-21","2026-04-10T05:09:37.391Z","Mozilla/5.0 (iPhone; CPU iPhone OS 18_7 like Mac OS X) AppleWebKit/605.1.15 (KHTML, like Gecko) Mobile/15E148","358","632","240","","null","<div style=""font-size:60px;"">+</div>","null","fixation","","","","","","","","","","","",""
"html-button-response","7","13045","0.0-2.0-1.2","1067","7","pre","3","morning","2026-04-08","2026-04-21","2026-04-10T05:09:37.391Z","Mozilla/5.0 (iPhone; CPU iPhone OS 18_7 like Mac OS X) AppleWebKit/605.1.15 (KHTML, like Gecko) Mobile/15E148","358","632","240","","1729","<div class=""prompt"" style=""font-size:24px; margin-bottom:20px;"">Which word describes you more?</div>","1","pairing","3","insecure","companion","PosNeg","24","100","negative","positive","76","companion","right","true"
"html-keyboard-response","8","13848","0.0-2.0-0.3","1067","7","pre","3","morning","2026-04-08","2026-04-21","2026-04-10T05:09:37.391Z","Mozilla/5.0 (iPhone; CPU iPhone OS 18_7 like Mac OS X) AppleWebKit/605.1.15 (KHTML, like Gecko) Mobile/15E148","358","632","240","","null","<div style=""font-size:60px;"">+</div>","null","fixation","","","","","","","","","","","",""
"html-button-response","9","15278","0.0-2.0-1.3","1067","7","pre","3","morning","2026-04-08","2026-04-21","2026-04-10T05:09:37.391Z","Mozilla/5.0 (iPhone; CPU iPhone OS 18_7 like Mac OS X) AppleWebKit/605.1.15 (KHTML, like Gecko) Mobile/15E148","358","632","240","","1428","<div class=""prompt"" style=""font-size:24px; margin-bottom:20px;"">Which word describes you more?</div>","0","pairing","4","champion","headache","PosNeg","44","49","positive","negative","5","champion","left","true"
"html-keyboard-response","10","16081","0.0-2.0-0.4","1067","7","pre","3","morning","2026-04-08","2026-04-21","2026-04-10T05:09:37.391Z","Mozilla/5.0 (iPhone; CPU iPhone OS 18_7 like Mac OS X) AppleWebKit/605.1.15 (KHTML, like Gecko) Mobile/15E148","358","632","240","","null","<div style=""font-size:60px;"">+</div>","null","fixation","","","","","","","","","","","",""
"html-button-response","11","17195","0.0-2.0-1.4","1067","7","pre","3","morning","2026-04-08","2026-04-21","2026-04-10T05:09:37.391Z","Mozilla/5.0 (iPhone; CPU iPhone OS 18_7 like Mac OS X) AppleWebKit/605.1.15 (KHTML, like Gecko) Mobile/15E148","358","632","240","","1111","<div class=""prompt"" style=""font-size:24px; margin-bottom:20px;"">Which word describes you more?</div>","0","pairing","5","helper","violent","PosNeg","85","13","positive","negative","72","helper","left","true"
"html-keyboard-response","12","17998","0.0-2.0-0.5","1067","7","pre","3","morning","2026-04-08","2026-04-21","2026-04-10T05:09:37.391Z","Mozilla/5.0 (iPhone; CPU iPhone OS 18_7 like Mac OS X) AppleWebKit/605.1.15 (KHTML, like Gecko) Mobile/15E148","358","632","240","","null","<div style=""font-size:60px;"">+</div>","null","fixation","","","","","","","","","","","",""
"html-button-response","13","19012","0.0-2.0-1.5","1067","7","pre","3","morning","2026-04-08","2026-04-21","2026-04-10T05:09:37.391Z","Mozilla/5.0 (iPhone; CPU iPhone OS 18_7 like Mac OS X) AppleWebKit/605.1.15 (KHTML, like Gecko) Mobile/15E148","358","632","240","","1011","<div class=""prompt"" style=""font-size:24px; margin-bottom:20px;"">Which word describes you more?</div>","0","pairing","6","cooperative","malicious","PosNeg","88","3","positive","negative","85","cooperative","left","true"
"html-keyboard-response","14","19814","0.0-2.0-0.6","1067","7","pre","3","morning","2026-04-08","2026-04-21","2026-04-10T05:09:37.391Z","Mozilla/5.0 (iPhone; CPU iPhone OS 18_7 like Mac OS X) AppleWebKit/605.1.15 (KHTML, like Gecko) Mobile/15E148","358","632","240","","null","<div style=""font-size:60px;"">+</div>","null","fixation","","","","","","","","","","","",""
"html-button-response","15","21179","0.0-2.0-1.6","1067","7","pre","3","morning","2026-04-08","2026-04-21","2026-04-10T05:09:37.391Z","Mozilla/5.0 (iPhone; CPU iPhone OS 18_7 like Mac OS X) AppleWebKit/605.1.15 (KHTML, like Gecko) Mobile/15E148","358","632","240","","1359","<div class=""prompt"" style=""font-size:24px; margin-bottom:20px;"">Which word describes you more?</div>","0","pairing","7","toxic","shameful","NegNeg","39","11","negative","negative","28","toxic","left","true"
"html-keyboard-response","16","21984","0.0-2.0-0.7","1067","7","pre","3","morning","2026-04-08","2026-04-21","2026-04-10T05:09:37.391Z","Mozilla/5.0 (iPhone; CPU iPhone OS 18_7 like Mac OS X) AppleWebKit/605.1.15 (KHTML, like Gecko) Mobile/15E148","358","632","240","","null","<div style=""font-size:60px;"">+</div>","null","fixation","","","","","","","","","","","",""
"html-button-response","17","23462","0.0-2.0-1.7","1067","7","pre","3","morning","2026-04-08","2026-04-21","2026-04-10T05:09:37.391Z","Mozilla/5.0 (iPhone; CPU iPhone OS 18_7 like Mac OS X) AppleWebKit/605.1.15 (KHTML, like Gecko) Mobile/15E148","358","632","240","","1475","<div class=""prompt"" style=""font-size:24px; margin-bottom:20px;"">Which word describes you more?</div>","1","pairing","8","regretful","parasite","NegNeg","7","11","negative","negative","4","parasite","right","true"
"html-keyboard-response","18","24265","0.0-2.0-0.8","1067","7","pre","3","morning","2026-04-08","2026-04-21","2026-04-10T05:09:37.391Z","Mozilla/5.0 (iPhone; CPU iPhone OS 18_7 like Mac OS X) AppleWebKit/605.1.15 (KHTML, like Gecko) Mobile/15E148","358","632","240","","null","<div style=""font-size:60px;"">+</div>","null","fixation","","","","","","","","","","","",""
"html-button-response","19","25579","0.0-2.0-1.8","1067","7","pre","3","morning","2026-04-08","2026-04-21","2026-04-10T05:09:37.391Z","Mozilla/5.0 (iPhone; CPU iPhone OS 18_7 like Mac OS X) AppleWebKit/605.1.15 (KHTML, like Gecko) Mobile/15E148","358","632","240","","1312","<div class=""prompt"" style=""font-size:24px; margin-bottom:20px;"">Which word describes you more?</div>","0","pairing","9","witty","outcast","PosNeg","50","5","positive","negative","45","witty","left","true"
"html-keyboard-response","20","26382","0.0-2.0-0.9","1067","7","pre","3","morning","2026-04-08","2026-04-21","2026-04-10T05:09:37.391Z","Mozilla/5.0 (iPhone; CPU iPhone OS 18_7 like Mac OS X) AppleWebKit/605.1.15 (KHTML, like Gecko) Mobile/15E148","358","632","240","","null","<div style=""font-size:60px;"">+</div>","null","fixation","","","","","","","","","","","",""
"html-button-response","21","27245","0.0-2.0-1.9","1067","7","pre","3","morning","2026-04-08","2026-04-21","2026-04-10T05:09:37.391Z","Mozilla/5.0 (iPhone; CPU iPhone OS 18_7 like Mac OS X) AppleWebKit/605.1.15 (KHTML, like Gecko) Mobile/15E148","358","632","240","","860","<div class=""prompt"" style=""font-size:24px; margin-bottom:20px;"">Which word describes you more?</div>","0","pairing","10","smiley","decisive","PosPos","100","30","positive","positive","70","smiley","left","true"
"html-keyboard-response","22","28048","0.0-2.0-0.10","1067","7","pre","3","morning","2026-04-08","2026-04-21","2026-04-10T05:09:37.391Z","Mozilla/5.0 (iPhone; CPU iPhone OS 18_7 like Mac OS X) AppleWebKit/605.1.15 (KHTML, like Gecko) Mobile/15E148","358","632","240","","null","<div style=""font-size:60px;"">+</div>","null","fixation","","","","","","","","","","","",""
"html-button-response","23","29012","0.0-2.0-1.10","1067","7","pre","3","morning","2026-04-08","2026-04-21","2026-04-10T05:09:37.391Z","Mozilla/5.0 (iPhone; CPU iPhone OS 18_7 like Mac OS X) AppleWebKit/605.1.15 (KHTML, like Gecko) Mobile/15E148","358","632","240","","961","<div class=""prompt"" style=""font-size:24px; margin-bottom:20px;"">Which word describes you more?</div>","0","pairing","11","arrogant","learner","PosNeg","87","100","negative","positive","13","arrogant","left","true"
"html-keyboard-response","24","29815","0.0-2.0-0.11","1067","7","pre","3","morning","2026-04-08","2026-04-21","2026-04-10T05:09:37.391Z","Mozilla/5.0 (iPhone; CPU iPhone OS 18_7 like Mac OS X) AppleWebKit/605.1.15 (KHTML, like Gecko) Mobile/15E148","358","632","240","","null","<div style=""font-size:60px;"">+</div>","null","fixation","","","","","","","","","","","",""
"html-button-response","25","31113","0.0-2.0-1.11","1067","7","pre","3","morning","2026-04-08","2026-04-21","2026-04-10T05:09:37.391Z","Mozilla/5.0 (iPhone; CPU iPhone OS 18_7 like Mac OS X) AppleWebKit/605.1.15 (KHTML, like Gecko) Mobile/15E148","358","632","240","","1295","<div class=""prompt"" style=""font-size:24px; margin-bottom:20px;"">Which word describes you more?</div>","1","pairing","12","patient","safe","PosPos","32","99","positive","positive","67","safe","right","true"
"html-keyboard-response","26","31916","0.0-2.0-0.12","1067","7","pre","3","morning","2026-04-08","2026-04-21","2026-04-10T05:09:37.391Z","Mozilla/5.0 (iPhone; CPU iPhone OS 18_7 like Mac OS X) AppleWebKit/605.1.15 (KHTML, like Gecko) Mobile/15E148","358","632","240","","null","<div style=""font-size:60px;"">+</div>","null","fixation","","","","","","","","","","","",""
"html-button-response","27","33146","0.0-2.0-1.12","1067","7","pre","3","morning","2026-04-08","2026-04-21","2026-04-10T05:09:37.391Z","Mozilla/5.0 (iPhone; CPU iPhone OS 18_7 like Mac OS X) AppleWebKit/605.1.15 (KHTML, like Gecko) Mobile/15E148","358","632","240","","1222","<div class=""prompt"" style=""font-size:24px; margin-bottom:20px;"">Which word describes you more?</div>","0","pairing","13","patient","prick","PosNeg","32","74","positive","negative","42","patient","left","true"
"html-keyboard-response","28","33950","0.0-2.0-0.13","1067","7","pre","3","morning","2026-04-08","2026-04-21","2026-04-10T05:09:37.391Z","Mozilla/5.0 (iPhone; CPU iPhone OS 18_7 like Mac OS X) AppleWebKit/605.1.15 (KHTML, like Gecko) Mobile/15E148","358","632","240","","null","<div style=""font-size:60px;"">+</div>","null","fixation","","","","","","","","","","","",""
"html-button-response","29","35880","0.0-2.0-1.13","1067","7","pre","3","morning","2026-04-08","2026-04-21","2026-04-10T05:09:37.391Z","Mozilla/5.0 (iPhone; CPU iPhone OS 18_7 like Mac OS X) AppleWebKit/605.1.15 (KHTML, like Gecko) Mobile/15E148","358","632","240","","1927","<div class=""prompt"" style=""font-size:24px; margin-bottom:20px;"">Which word describes you more?</div>","0","pairing","14","hateful","boring","NegNeg","49","0","negative","negative","49","hateful","left","true"
"html-keyboard-response","30","36682","0.0-2.0-0.14","1067","7","pre","3","morning","2026-04-08","2026-04-21","2026-04-10T05:09:37.391Z","Mozilla/5.0 (iPhone; CPU iPhone OS 18_7 like Mac OS X) AppleWebKit/605.1.15 (KHTML, like Gecko) Mobile/15E148","358","632","240","","null","<div style=""font-size:60px;"">+</div>","null","fixation","","","","","","","","","","","",""
"html-button-response","31","38463","0.0-2.0-1.14","1067","7","pre","3","morning","2026-04-08","2026-04-21","2026-04-10T05:09:37.391Z","Mozilla/5.0 (iPhone; CPU iPhone OS 18_7 like Mac OS X) AppleWebKit/605.1.15 (KHTML, like Gecko) Mobile/15E148","358","632","240","","1779","<div class=""prompt"" style=""font-size:24px; margin-bottom:20px;"">Which word describes you more?</div>","0","pairing","15","fraud","stingy","NegNeg","0","34","negative","negative","34","fraud","left","true"
"html-keyboard-response","32","39266","0.0-2.0-0.15","1067","7","pre","3","morning","2026-04-08","2026-04-21","2026-04-10T05:09:37.391Z","Mozilla/5.0 (iPhone; CPU iPhone OS 18_7 like Mac OS X) AppleWebKit/605.1.15 (KHTML, like Gecko) Mobile/15E148","358","632","240","","null","<div style=""font-size:60px;"">+</div>","null","fixation","","","","","","","","","","","",""
"html-button-response","33","41547","0.0-2.0-1.15","1067","7","pre","3","morning","2026-04-08","2026-04-21","2026-04-10T05:09:37.391Z","Mozilla/5.0 (iPhone; CPU iPhone OS 18_7 like Mac OS X) AppleWebKit/605.1.15 (KHTML, like Gecko) Mobile/15E148","358","632","240","","2279","<div class=""prompt"" style=""font-size:24px; margin-bottom:20px;"">Which word describes you more?</div>","1","pairing","16","vengeful","hopeful","PosNeg","73","69","negative","positive","4","hopeful","right","true"
"html-keyboard-response","34","42350","0.0-2.0-0.16","1067","7","pre","3","morning","2026-04-08","2026-04-21","2026-04-10T05:09:37.391Z","Mozilla/5.0 (iPhone; CPU iPhone OS 18_7 like Mac OS X) AppleWebKit/605.1.15 (KHTML, like Gecko) Mobile/15E148","358","632","240","","null","<div style=""font-size:60px;"">+</div>","null","fixation","","","","","","","","","","","",""
"html-button-response","35","43630","0.0-2.0-1.16","1067","7","pre","3","morning","2026-04-08","2026-04-21","2026-04-10T05:09:37.391Z","Mozilla/5.0 (iPhone; CPU iPhone OS 18_7 like Mac OS X) AppleWebKit/605.1.15 (KHTML, like Gecko) Mobile/15E148","358","632","240","","1277","<div class=""prompt"" style=""font-size:24px; margin-bottom:20px;"">Which word describes you more?</div>","0","pairing","17","arrogant","awful","NegNeg","87","0","negative","negative","87","arrogant","left","true"
"html-keyboard-response","36","44435","0.0-2.0-0.17","1067","7","pre","3","morning","2026-04-08","2026-04-21","2026-04-10T05:09:37.391Z","Mozilla/5.0 (iPhone; CPU iPhone OS 18_7 like Mac OS X) AppleWebKit/605.1.15 (KHTML, like Gecko) Mobile/15E148","358","632","240","","null","<div style=""font-size:60px;"">+</div>","null","fixation","","","","","","","","","","","",""
"html-button-response","37","45680","0.0-2.0-1.17","1067","7","pre","3","morning","2026-04-08","2026-04-21","2026-04-10T05:09:37.391Z","Mozilla/5.0 (iPhone; CPU iPhone OS 18_7 like Mac OS X) AppleWebKit/605.1.15 (KHTML, like Gecko) Mobile/15E148","358","632","240","","1243","<div class=""prompt"" style=""font-size:24px; margin-bottom:20px;"">Which word describes you more?</div>","0","pairing","18","witty","capable","PosPos","50","88","positive","positive","38","witty","left","true"
"html-keyboard-response","38","46483","0.0-2.0-0.18","1067","7","pre","3","morning","2026-04-08","2026-04-21","2026-04-10T05:09:37.391Z","Mozilla/5.0 (iPhone; CPU iPhone OS 18_7 like Mac OS X) AppleWebKit/605.1.15 (KHTML, like Gecko) Mobile/15E148","358","632","240","","null","<div style=""font-size:60px;"">+</div>","null","fixation","","","","","","","","","","","",""
"html-button-response","39","47697","0.0-2.0-1.18","1067","7","pre","3","morning","2026-04-08","2026-04-21","2026-04-10T05:09:37.391Z","Mozilla/5.0 (iPhone; CPU iPhone OS 18_7 like Mac OS X) AppleWebKit/605.1.15 (KHTML, like Gecko) Mobile/15E148","358","632","240","","1212","<div class=""prompt"" style=""font-size:24px; margin-bottom:20px;"">Which word describes you more?</div>","1","pairing","19","merciful","virtuous","PosPos","50","70","positive","positive","20","virtuous","right","true"
"html-keyboard-response","40","48500","0.0-2.0-0.19","1067","7","pre","3","morning","2026-04-08","2026-04-21","2026-04-10T05:09:37.391Z","Mozilla/5.0 (iPhone; CPU iPhone OS 18_7 like Mac OS X) AppleWebKit/605.1.15 (KHTML, like Gecko) Mobile/15E148","358","632","240","","null","<div style=""font-size:60px;"">+</div>","null","fixation","","","","","","","","","","","",""
"html-button-response","41","49547","0.0-2.0-1.19","1067","7","pre","3","morning","2026-04-08","2026-04-21","2026-04-10T05:09:37.391Z","Mozilla/5.0 (iPhone; CPU iPhone OS 18_7 like Mac OS X) AppleWebKit/605.1.15 (KHTML, like Gecko) Mobile/15E148","358","632","240","","1045","<div class=""prompt"" style=""font-size:24px; margin-bottom:20px;"">Which word describes you more?</div>","1","pairing","20","headache","energetic","PosNeg","49","86","negative","positive","37","energetic","right","true"
"html-keyboard-response","42","50350","0.0-2.0-0.20","1067","7","pre","3","morning","2026-04-08","2026-04-21","2026-04-10T05:09:37.391Z","Mozilla/5.0 (iPhone; CPU iPhone OS 18_7 like Mac OS X) AppleWebKit/605.1.15 (KHTML, like Gecko) Mobile/15E148","358","632","240","","null","<div style=""font-size:60px;"">+</div>","null","fixation","","","","","","","","","","","",""
"html-button-response","43","52231","0.0-2.0-1.20","1067","7","pre","3","morning","2026-04-08","2026-04-21","2026-04-10T05:09:37.391Z","Mozilla/5.0 (iPhone; CPU iPhone OS 18_7 like Mac OS X) AppleWebKit/605.1.15 (KHTML, like Gecko) Mobile/15E148","358","632","240","","1878","<div class=""prompt"" style=""font-size:24px; margin-bottom:20px;"">Which word describes you more?</div>","0","pairing","21","energetic","inspirational","PosPos","86","46","positive","positive","40","energetic","left","true"
"html-keyboard-response","44","53033","0.0-2.0-0.21","1067","7","pre","3","morning","2026-04-08","2026-04-21","2026-04-10T05:09:37.391Z","Mozilla/5.0 (iPhone; CPU iPhone OS 18_7 like Mac OS X) AppleWebKit/605.1.15 (KHTML, like Gecko) Mobile/15E148","358","632","240","","null","<div style=""font-size:60px;"">+</div>","null","fixation","","","","","","","","","","","",""
"html-button-response","45","54100","0.0-2.0-1.21","1067","7","pre","3","morning","2026-04-08","2026-04-21","2026-04-10T05:09:37.391Z","Mozilla/5.0 (iPhone; CPU iPhone OS 18_7 like Mac OS X) AppleWebKit/605.1.15 (KHTML, like Gecko) Mobile/15E148","358","632","240","","1064","<div class=""prompt"" style=""font-size:24px; margin-bottom:20px;"">Which word describes you more?</div>","1","pairing","22","graceful","playful","PosPos","92","88","positive","positive","4","playful","right","true"
"html-keyboard-response","46","54903","0.0-2.0-0.22","1067","7","pre","3","morning","2026-04-08","2026-04-21","2026-04-10T05:09:37.391Z","Mozilla/5.0 (iPhone; CPU iPhone OS 18_7 like Mac OS X) AppleWebKit/605.1.15 (KHTML, like Gecko) Mobile/15E148","358","632","240","","null","<div style=""font-size:60px;"">+</div>","null","fixation","","","","","","","","","","","",""
"html-button-response","47","55848","0.0-2.0-1.22","1067","7","pre","3","morning","2026-04-08","2026-04-21","2026-04-10T05:09:37.391Z","Mozilla/5.0 (iPhone; CPU iPhone OS 18_7 like Mac OS X) AppleWebKit/605.1.15 (KHTML, like Gecko) Mobile/15E148","358","632","240","","942","<div class=""prompt"" style=""font-size:24px; margin-bottom:20px;"">Which word describes you more?</div>","0","pairing","23","satisfied","arrogant","PosNeg","88","87","positive","negative","1","satisfied","left","true"
"html-keyboard-response","48","56650","0.0-2.0-0.23","1067","7","pre","3","morning","2026-04-08","2026-04-21","2026-04-10T05:09:37.391Z","Mozilla/5.0 (iPhone; CPU iPhone OS 18_7 like Mac OS X) AppleWebKit/605.1.15 (KHTML, like Gecko) Mobile/15E148","358","632","240","","null","<div style=""font-size:60px;"">+</div>","null","fixation","","","","","","","","","","","",""
"html-button-response","49","58031","0.0-2.0-1.23","1067","7","pre","3","morning","2026-04-08","2026-04-21","2026-04-10T05:09:37.391Z","Mozilla/5.0 (iPhone; CPU iPhone OS 18_7 like Mac OS X) AppleWebKit/605.1.15 (KHTML, like Gecko) Mobile/15E148","358","632","240","","1378","<div class=""prompt"" style=""font-size:24px; margin-bottom:20px;"">Which word describes you more?</div>","1","pairing","24","fraud","vengeful","NegNeg","0","73","negative","negative","73","vengeful","right","true"
"instructions","50","58964","0.0-3.0","1067","7","pre","3","morning","2026-04-08","2026-04-21","2026-04-10T05:09:37.391Z","Mozilla/5.0 (iPhone; CPU iPhone OS 18_7 like Mac OS X) AppleWebKit/605.1.15 (KHTML, like Gecko) Mobile/15E148","358","632","240","[{""page_index"":0,""viewing_time"":931}]","931","","","","","","","","","","","","","","",""
