"trial_type","trial_index","time_elapsed","internal_node_id","PUNS_ID","session_number","session_phase","session_day","session_slot","ema_start_date","ema_post_start_date","experiment_start","browser","screen_width","screen_height","timezone_offset","view_history","rt","stimulus","response","which_experiment_phase","trial_number","left_word","right_word","valence","left_base_rating","right_base_rating","left_valence","right_valence","abs_diff","participant_response","chosen_side","valid_response"
"pavlovia","0","1544","0.0-0.0","1067","54","post","8","evening","2026-04-08","2026-04-21","2026-04-29T00:09:00.003Z","Mozilla/5.0 (iPhone; CPU iPhone OS 18_7 like Mac OS X) AppleWebKit/605.1.15 (KHTML, like Gecko) Mobile/15E148","358","632","240","","","","","","","","","","","","","","","","",""
"instructions","1","4369","0.0-1.0","1067","54","post","8","evening","2026-04-08","2026-04-21","2026-04-29T00:09:00.003Z","Mozilla/5.0 (iPhone; CPU iPhone OS 18_7 like Mac OS X) AppleWebKit/605.1.15 (KHTML, like Gecko) Mobile/15E148","358","632","240","[{""page_index"":0,""viewing_time"":699},{""page_index"":1,""viewing_time"":456},{""page_index"":2,""viewing_time"":1152},{""page_index"":3,""viewing_time"":514}]","2822","","","","","","","","","","","","","","",""
"html-keyboard-response","2","5172","0.0-2.0-0.0","1067","54","post","8","evening","2026-04-08","2026-04-21","2026-04-29T00:09:00.003Z","Mozilla/5.0 (iPhone; CPU iPhone OS 18_7 like Mac OS X) AppleWebKit/605.1.15 (KHTML, like Gecko) Mobile/15E148","358","632","240","","null","<div style=""font-size:60px;"">+</div>","null","fixation","","","","","","","","","","","",""
"html-button-response","3","6503","0.0-2.0-1.0","1067","54","post","8","evening","2026-04-08","2026-04-21","2026-04-29T00:09:00.003Z","Mozilla/5.0 (iPhone; CPU iPhone OS 18_7 like Mac OS X) AppleWebKit/605.1.15 (KHTML, like Gecko) Mobile/15E148","358","632","240","","1325","<div class=""prompt"" style=""font-size:24px; margin-bottom:20px;"">Which word describes you more?</div>","0","pairing","1","stingy","heartbroken","NegNeg","35","0","negative","negative","35","stingy","left","true"
"html-keyboard-response","4","7306","0.0-2.0-0.1","1067","54","post","8","evening","2026-04-08","2026-04-21","2026-04-29T00:09:00.003Z","Mozilla/5.0 (iPhone; CPU iPhone OS 18_7 like Mac OS X) AppleWebKit/605.1.15 (KHTML, like Gecko) Mobile/15E148","358","632","240","","null","<div style=""font-size:60px;"">+</div>","null","fixation","","","","","","","","","","","",""
"html-button-response","5","8285","0.0-2.0-1.1","1067","54","post","8","evening","2026-04-08","2026-04-21","2026-04-29T00:09:00.003Z","Mozilla/5.0 (iPhone; CPU iPhone OS 18_7 like Mac OS X) AppleWebKit/605.1.15 (KHTML, like Gecko) Mobile/15E148","358","632","240","","974","<div class=""prompt"" style=""font-size:24px; margin-bottom:20px;"">Which word describes you more?</div>","1","pairing","2","pest","decisive","PosNeg","30","50","negative","positive","20","decisive","right","true"
"html-keyboard-response","6","9088","0.0-2.0-0.2","1067","54","post","8","evening","2026-04-08","2026-04-21","2026-04-29T00:09:00.003Z","Mozilla/5.0 (iPhone; CPU iPhone OS 18_7 like Mac OS X) AppleWebKit/605.1.15 (KHTML, like Gecko) Mobile/15E148","358","632","240","","null","<div style=""font-size:60px;"">+</div>","null","fixation","","","","","","","","","","","",""
"html-button-response","7","10352","0.0-2.0-1.2","1067","54","post","8","evening","2026-04-08","2026-04-21","2026-04-29T00:09:00.003Z","Mozilla/5.0 (iPhone; CPU iPhone OS 18_7 like Mac OS X) AppleWebKit/605.1.15 (KHTML, like Gecko) Mobile/15E148","358","632","240","","1262","<div class=""prompt"" style=""font-size:24px; margin-bottom:20px;"">Which word describes you more?</div>","1","pairing","3","irritating","goodwilled","PosNeg","56","94","negative","positive","38","goodwilled","right","true"
"html-keyboard-response","8","11154","0.0-2.0-0.3","1067","54","post","8","evening","2026-04-08","2026-04-21","2026-04-29T00:09:00.003Z","Mozilla/5.0 (iPhone; CPU iPhone OS 18_7 like Mac OS X) AppleWebKit/605.1.15 (KHTML, like Gecko) Mobile/15E148","358","632","240","","null","<div style=""font-size:60px;"">+</div>","null","fixation","","","","","","","","","","","",""
"html-button-response","9","12303","0.0-2.0-1.3","1067","54","post","8","evening","2026-04-08","2026-04-21","2026-04-29T00:09:00.003Z","Mozilla/5.0 (iPhone; CPU iPhone OS 18_7 like Mac OS X) AppleWebKit/605.1.15 (KHTML, like Gecko) Mobile/15E148","358","632","240","","1147","<div class=""prompt"" style=""font-size:24px; margin-bottom:20px;"">Which word describes you more?</div>","0","pairing","4","arrogant","expert","PosNeg","73","51","negative","positive","22","arrogant","left","true"
"html-keyboard-response","10","13105","0.0-2.0-0.4","1067","54","post","8","evening","2026-04-08","2026-04-21","2026-04-29T00:09:00.003Z","Mozilla/5.0 (iPhone; CPU iPhone OS 18_7 like Mac OS X) AppleWebKit/605.1.15 (KHTML, like Gecko) Mobile/15E148","358","632","240","","null","<div style=""font-size:60px;"">+</div>","null","fixation","","","","","","","","","","","",""
"html-button-response","11","13969","0.0-2.0-1.4","1067","54","post","8","evening","2026-04-08","2026-04-21","2026-04-29T00:09:00.003Z","Mozilla/5.0 (iPhone; CPU iPhone OS 18_7 like Mac OS X) AppleWebKit/605.1.15 (KHTML, like Gecko) Mobile/15E148","358","632","240","","861","<div class=""prompt"" style=""font-size:24px; margin-bottom:20px;"">Which word describes you more?</div>","1","pairing","5","champion","enthusiastic","PosPos","47","88","positive","positive","41","enthusiastic","right","true"
"html-keyboard-response","12","14772","0.0-2.0-0.5","1067","54","post","8","evening","2026-04-08","2026-04-21","2026-04-29T00:09:00.003Z","Mozilla/5.0 (iPhone; CPU iPhone OS 18_7 like Mac OS X) AppleWebKit/605.1.15 (KHTML, like Gecko) Mobile/15E148","358","632","240","","null","<div style=""font-size:60px;"">+</div>","null","fixation","","","","","","","","","","","",""
"html-button-response","13","15786","0.0-2.0-1.5","1067","54","post","8","evening","2026-04-08","2026-04-21","2026-04-29T00:09:00.003Z","Mozilla/5.0 (iPhone; CPU iPhone OS 18_7 like Mac OS X) AppleWebKit/605.1.15 (KHTML, like Gecko) Mobile/15E148","358","632","240","","1011","<div class=""prompt"" style=""font-size:24px; margin-bottom:20px;"">Which word describes you more?</div>","1","pairing","6","unwanted","quitter","NegNeg","0","34","negative","negative","34","quitter","right","true"
"html-keyboard-response","14","16589","0.0-2.0-0.6","1067","54","post","8","evening","2026-04-08","2026-04-21","2026-04-29T00:09:00.003Z","Mozilla/5.0 (iPhone; CPU iPhone OS 18_7 like Mac OS X) AppleWebKit/605.1.15 (KHTML, like Gecko) Mobile/15E148","358","632","240","","null","<div style=""font-size:60px;"">+</div>","null","fixation","","","","","","","","","","","",""
"html-button-response","15","17569","0.0-2.0-1.6","1067","54","post","8","evening","2026-04-08","2026-04-21","2026-04-29T00:09:00.003Z","Mozilla/5.0 (iPhone; CPU iPhone OS 18_7 like Mac OS X) AppleWebKit/605.1.15 (KHTML, like Gecko) Mobile/15E148","358","632","240","","977","<div class=""prompt"" style=""font-size:24px; margin-bottom:20px;"">Which word describes you more?</div>","1","pairing","7","legendary","boring","PosNeg","57","4","positive","negative","53","boring","right","true"
"html-keyboard-response","16","18372","0.0-2.0-0.7","1067","54","post","8","evening","2026-04-08","2026-04-21","2026-04-29T00:09:00.003Z","Mozilla/5.0 (iPhone; CPU iPhone OS 18_7 like Mac OS X) AppleWebKit/605.1.15 (KHTML, like Gecko) Mobile/15E148","358","632","240","","null","<div style=""font-size:60px;"">+</div>","null","fixation","","","","","","","","","","","",""
"html-button-response","17","19786","0.0-2.0-1.7","1067","54","post","8","evening","2026-04-08","2026-04-21","2026-04-29T00:09:00.003Z","Mozilla/5.0 (iPhone; CPU iPhone OS 18_7 like Mac OS X) AppleWebKit/605.1.15 (KHTML, like Gecko) Mobile/15E148","358","632","240","","1411","<div class=""prompt"" style=""font-size:24px; margin-bottom:20px;"">Which word describes you more?</div>","1","pairing","8","decisive","adorable","PosPos","50","73","positive","positive","23","adorable","right","true"
"html-keyboard-response","18","20589","0.0-2.0-0.8","1067","54","post","8","evening","2026-04-08","2026-04-21","2026-04-29T00:09:00.003Z","Mozilla/5.0 (iPhone; CPU iPhone OS 18_7 like Mac OS X) AppleWebKit/605.1.15 (KHTML, like Gecko) Mobile/15E148","358","632","240","","null","<div style=""font-size:60px;"">+</div>","null","fixation","","","","","","","","","","","",""
"html-button-response","19","22770","0.0-2.0-1.8","1067","54","post","8","evening","2026-04-08","2026-04-21","2026-04-29T00:09:00.003Z","Mozilla/5.0 (iPhone; CPU iPhone OS 18_7 like Mac OS X) AppleWebKit/605.1.15 (KHTML, like Gecko) Mobile/15E148","358","632","240","","2178","<div class=""prompt"" style=""font-size:24px; margin-bottom:20px;"">Which word describes you more?</div>","0","pairing","9","unlucky","repulsive","NegNeg","12","5","negative","negative","7","unlucky","left","true"
"html-keyboard-response","20","23573","0.0-2.0-0.9","1067","54","post","8","evening","2026-04-08","2026-04-21","2026-04-29T00:09:00.003Z","Mozilla/5.0 (iPhone; CPU iPhone OS 18_7 like Mac OS X) AppleWebKit/605.1.15 (KHTML, like Gecko) Mobile/15E148","358","632","240","","null","<div style=""font-size:60px;"">+</div>","null","fixation","","","","","","","","","","","",""
"html-button-response","21","27937","0.0-2.0-1.9","1067","54","post","8","evening","2026-04-08","2026-04-21","2026-04-29T00:09:00.003Z","Mozilla/5.0 (iPhone; CPU iPhone OS 18_7 like Mac OS X) AppleWebKit/605.1.15 (KHTML, like Gecko) Mobile/15E148","358","632","240","","4362","<div class=""prompt"" style=""font-size:24px; margin-bottom:20px;"">Which word describes you more?</div>","0","pairing","10","blissful","anxious","PosNeg","84","51","positive","negative","33","blissful","left","true"
"html-keyboard-response","22","28740","0.0-2.0-0.10","1067","54","post","8","evening","2026-04-08","2026-04-21","2026-04-29T00:09:00.003Z","Mozilla/5.0 (iPhone; CPU iPhone OS 18_7 like Mac OS X) AppleWebKit/605.1.15 (KHTML, like Gecko) Mobile/15E148","358","632","240","","null","<div style=""font-size:60px;"">+</div>","null","fixation","","","","","","","","","","","",""
"html-button-response","23","30637","0.0-2.0-1.10","1067","54","post","8","evening","2026-04-08","2026-04-21","2026-04-29T00:09:00.003Z","Mozilla/5.0 (iPhone; CPU iPhone OS 18_7 like Mac OS X) AppleWebKit/605.1.15 (KHTML, like Gecko) Mobile/15E148","358","632","240","","1894","<div class=""prompt"" style=""font-size:24px; margin-bottom:20px;"">Which word describes you more?</div>","1","pairing","11","visionary","menace","PosNeg","57","70","positive","negative","13","menace","right","true"
"html-keyboard-response","24","31443","0.0-2.0-0.11","1067","54","post","8","evening","2026-04-08","2026-04-21","2026-04-29T00:09:00.003Z","Mozilla/5.0 (iPhone; CPU iPhone OS 18_7 like Mac OS X) AppleWebKit/605.1.15 (KHTML, like Gecko) Mobile/15E148","358","632","240","","null","<div style=""font-size:60px;"">+</div>","null","fixation","","","","","","","","","","","",""
"html-button-response","25","32371","0.0-2.0-1.11","1067","54","post","8","evening","2026-04-08","2026-04-21","2026-04-29T00:09:00.003Z","Mozilla/5.0 (iPhone; CPU iPhone OS 18_7 like Mac OS X) AppleWebKit/605.1.15 (KHTML, like Gecko) Mobile/15E148","358","632","240","","924","<div class=""prompt"" style=""font-size:24px; margin-bottom:20px;"">Which word describes you more?</div>","0","pairing","12","fun","respectable","PosPos","81","69","positive","positive","12","fun","left","true"
"html-keyboard-response","26","33174","0.0-2.0-0.12","1067","54","post","8","evening","2026-04-08","2026-04-21","2026-04-29T00:09:00.003Z","Mozilla/5.0 (iPhone; CPU iPhone OS 18_7 like Mac OS X) AppleWebKit/605.1.15 (KHTML, like Gecko) Mobile/15E148","358","632","240","","null","<div style=""font-size:60px;"">+</div>","null","fixation","","","","","","","","","","","",""
"html-button-response","27","34104","0.0-2.0-1.12","1067","54","post","8","evening","2026-04-08","2026-04-21","2026-04-29T00:09:00.003Z","Mozilla/5.0 (iPhone; CPU iPhone OS 18_7 like Mac OS X) AppleWebKit/605.1.15 (KHTML, like Gecko) Mobile/15E148","358","632","240","","927","<div class=""prompt"" style=""font-size:24px; margin-bottom:20px;"">Which word describes you more?</div>","1","pairing","13","unfaithful","tolerant","PosNeg","0","67","negative","positive","67","tolerant","right","true"
"html-keyboard-response","28","34907","0.0-2.0-0.13","1067","54","post","8","evening","2026-04-08","2026-04-21","2026-04-29T00:09:00.003Z","Mozilla/5.0 (iPhone; CPU iPhone OS 18_7 like Mac OS X) AppleWebKit/605.1.15 (KHTML, like Gecko) Mobile/15E148","358","632","240","","null","<div style=""font-size:60px;"">+</div>","null","fixation","","","","","","","","","","","",""
"html-button-response","29","36704","0.0-2.0-1.13","1067","54","post","8","evening","2026-04-08","2026-04-21","2026-04-29T00:09:00.003Z","Mozilla/5.0 (iPhone; CPU iPhone OS 18_7 like Mac OS X) AppleWebKit/605.1.15 (KHTML, like Gecko) Mobile/15E148","358","632","240","","1795","<div class=""prompt"" style=""font-size:24px; margin-bottom:20px;"">Which word describes you more?</div>","0","pairing","14","appealing","seeker","PosPos","76","66","positive","positive","10","appealing","left","true"
"html-keyboard-response","30","37507","0.0-2.0-0.14","1067","54","post","8","evening","2026-04-08","2026-04-21","2026-04-29T00:09:00.003Z","Mozilla/5.0 (iPhone; CPU iPhone OS 18_7 like Mac OS X) AppleWebKit/605.1.15 (KHTML, like Gecko) Mobile/15E148","358","632","240","","null","<div style=""font-size:60px;"">+</div>","null","fixation","","","","","","","","","","","",""
"html-button-response","31","38721","0.0-2.0-1.14","1067","54","post","8","evening","2026-04-08","2026-04-21","2026-04-29T00:09:00.003Z","Mozilla/5.0 (iPhone; CPU iPhone OS 18_7 like Mac OS X) AppleWebKit/605.1.15 (KHTML, like Gecko) Mobile/15E148","358","632","240","","1211","<div class=""prompt"" style=""font-size:24px; margin-bottom:20px;"">Which word describes you more?</div>","0","pairing","15","menace","outcast","NegNeg","70","1","negative","negative","69","menace","left","true"
"html-keyboard-response","32","39524","0.0-2.0-0.15","1067","54","post","8","evening","2026-04-08","2026-04-21","2026-04-29T00:09:00.003Z","Mozilla/5.0 (iPhone; CPU iPhone OS 18_7 like Mac OS X) AppleWebKit/605.1.15 (KHTML, like Gecko) Mobile/15E148","358","632","240","","null","<div style=""font-size:60px;"">+</div>","null","fixation","","","","","","","","","","","",""
"html-button-response","33","40639","0.0-2.0-1.15","1067","54","post","8","evening","2026-04-08","2026-04-21","2026-04-29T00:09:00.003Z","Mozilla/5.0 (iPhone; CPU iPhone OS 18_7 like Mac OS X) AppleWebKit/605.1.15 (KHTML, like Gecko) Mobile/15E148","358","632","240","","1112","<div class=""prompt"" style=""font-size:24px; margin-bottom:20px;"">Which word describes you more?</div>","1","pairing","16","disgusting","friend","PosNeg","1","100","negative","positive","99","friend","right","true"
"html-keyboard-response","34","41442","0.0-2.0-0.16","1067","54","post","8","evening","2026-04-08","2026-04-21","2026-04-29T00:09:00.003Z","Mozilla/5.0 (iPhone; CPU iPhone OS 18_7 like Mac OS X) AppleWebKit/605.1.15 (KHTML, like Gecko) Mobile/15E148","358","632","240","","null","<div style=""font-size:60px;"">+</div>","null","fixation","","","","","","","","","","","",""
"html-button-response","35","42988","0.0-2.0-1.16","1067","54","post","8","evening","2026-04-08","2026-04-21","2026-04-29T00:09:00.003Z","Mozilla/5.0 (iPhone; CPU iPhone OS 18_7 like Mac OS X) AppleWebKit/605.1.15 (KHTML, like Gecko) Mobile/15E148","358","632","240","","1543","<div class=""prompt"" style=""font-size:24px; margin-bottom:20px;"">Which word describes you more?</div>","1","pairing","17","disgrace","helpless","NegNeg","0","69","negative","negative","69","helpless","right","true"
"html-keyboard-response","36","43791","0.0-2.0-0.17","1067","54","post","8","evening","2026-04-08","2026-04-21","2026-04-29T00:09:00.003Z","Mozilla/5.0 (iPhone; CPU iPhone OS 18_7 like Mac OS X) AppleWebKit/605.1.15 (KHTML, like Gecko) Mobile/15E148","358","632","240","","null","<div style=""font-size:60px;"">+</div>","null","fixation","","","","","","","","","","","",""
"html-button-response","37","45415","0.0-2.0-1.17","1067","54","post","8","evening","2026-04-08","2026-04-21","2026-04-29T00:09:00.003Z","Mozilla/5.0 (iPhone; CPU iPhone OS 18_7 like Mac OS X) AppleWebKit/605.1.15 (KHTML, like Gecko) Mobile/15E148","358","632","240","","1621","<div class=""prompt"" style=""font-size:24px; margin-bottom:20px;"">Which word describes you more?</div>","0","pairing","18","vermin","repulsive","NegNeg","0","5","negative","negative","5","vermin","left","true"
"html-keyboard-response","38","46217","0.0-2.0-0.18","1067","54","post","8","evening","2026-04-08","2026-04-21","2026-04-29T00:09:00.003Z","Mozilla/5.0 (iPhone; CPU iPhone OS 18_7 like Mac OS X) AppleWebKit/605.1.15 (KHTML, like Gecko) Mobile/15E148","358","632","240","","null","<div style=""font-size:60px;"">+</div>","null","fixation","","","","","","","","","","","",""
"html-button-response","39","47522","0.0-2.0-1.18","1067","54","post","8","evening","2026-04-08","2026-04-21","2026-04-29T00:09:00.003Z","Mozilla/5.0 (iPhone; CPU iPhone OS 18_7 like Mac OS X) AppleWebKit/605.1.15 (KHTML, like Gecko) Mobile/15E148","358","632","240","","1302","<div class=""prompt"" style=""font-size:24px; margin-bottom:20px;"">Which word describes you more?</div>","0","pairing","19","helper","alone","PosNeg","72","15","positive","negative","57","helper","left","true"
"html-keyboard-response","40","48324","0.0-2.0-0.19","1067","54","post","8","evening","2026-04-08","2026-04-21","2026-04-29T00:09:00.003Z","Mozilla/5.0 (iPhone; CPU iPhone OS 18_7 like Mac OS X) AppleWebKit/605.1.15 (KHTML, like Gecko) Mobile/15E148","358","632","240","","null","<div style=""font-size:60px;"">+</div>","null","fixation","","","","","","","","","","","",""
"html-button-response","41","49204","0.0-2.0-1.19","1067","54","post","8","evening","2026-04-08","2026-04-21","2026-04-29T00:09:00.003Z","Mozilla/5.0 (iPhone; CPU iPhone OS 18_7 like Mac OS X) AppleWebKit/605.1.15 (KHTML, like Gecko) Mobile/15E148","358","632","240","","878","<div class=""prompt"" style=""font-size:24px; margin-bottom:20px;"">Which word describes you more?</div>","0","pairing","20","fun","insecure","PosNeg","81","12","positive","negative","69","fun","left","true"
"html-keyboard-response","42","50006","0.0-2.0-0.20","1067","54","post","8","evening","2026-04-08","2026-04-21","2026-04-29T00:09:00.003Z","Mozilla/5.0 (iPhone; CPU iPhone OS 18_7 like Mac OS X) AppleWebKit/605.1.15 (KHTML, like Gecko) Mobile/15E148","358","632","240","","null","<div style=""font-size:60px;"">+</div>","null","fixation","","","","","","","","","","","",""
"html-button-response","43","51455","0.0-2.0-1.20","1067","54","post","8","evening","2026-04-08","2026-04-21","2026-04-29T00:09:00.003Z","Mozilla/5.0 (iPhone; CPU iPhone OS 18_7 like Mac OS X) AppleWebKit/605.1.15 (KHTML, like Gecko) Mobile/15E148","358","632","240","","1447","<div class=""prompt"" style=""font-size:24px; margin-bottom:20px;"">Which word describes you more?</div>","0","pairing","21","authentic","expert","PosPos","93","51","positive","positive","42","authentic","left","true"
"html-keyboard-response","44","52258","0.0-2.0-0.21","1067","54","post","8","evening","2026-04-08","2026-04-21","2026-04-29T00:09:00.003Z","Mozilla/5.0 (iPhone; CPU iPhone OS 18_7 like Mac OS X) AppleWebKit/605.1.15 (KHTML, like Gecko) Mobile/15E148","358","632","240","","null","<div style=""font-size:60px;"">+</div>","null","fixation","","","","","","","","","","","",""
"html-button-response","45","53388","0.0-2.0-1.21","1067","54","post","8","evening","2026-04-08","2026-04-21","2026-04-29T00:09:00.003Z","Mozilla/5.0 (iPhone; CPU iPhone OS 18_7 like Mac OS X) AppleWebKit/605.1.15 (KHTML, like Gecko) Mobile/15E148","358","632","240","","1127","<div class=""prompt"" style=""font-size:24px; margin-bottom:20px;"">Which word describes you more?</div>","1","pairing","22","unbearable","idealistic","PosNeg","6","73","negative","positive","67","idealistic","right","true"
"html-keyboard-response","46","54191","0.0-2.0-0.22","1067","54","post","8","evening","2026-04-08","2026-04-21","2026-04-29T00:09:00.003Z","Mozilla/5.0 (iPhone; CPU iPhone OS 18_7 like Mac OS X) AppleWebKit/605.1.15 (KHTML, like Gecko) Mobile/15E148","358","632","240","","null","<div style=""font-size:60px;"">+</div>","null","fixation","","","","","","","","","","","",""
"html-button-response","47","55772","0.0-2.0-1.22","1067","54","post","8","evening","2026-04-08","2026-04-21","2026-04-29T00:09:00.003Z","Mozilla/5.0 (iPhone; CPU iPhone OS 18_7 like Mac OS X) AppleWebKit/605.1.15 (KHTML, like Gecko) Mobile/15E148","358","632","240","","1579","<div class=""prompt"" style=""font-size:24px; margin-bottom:20px;"">Which word describes you more?</div>","1","pairing","23","rude","goodwilled","PosNeg","51","94","negative","positive","43","goodwilled","right","true"
"html-keyboard-response","48","56575","0.0-2.0-0.23","1067","54","post","8","evening","2026-04-08","2026-04-21","2026-04-29T00:09:00.003Z","Mozilla/5.0 (iPhone; CPU iPhone OS 18_7 like Mac OS X) AppleWebKit/605.1.15 (KHTML, like Gecko) Mobile/15E148","358","632","240","","null","<div style=""font-size:60px;"">+</div>","null","fixation","","","","","","","","","","","",""
"html-button-response","49","58988","0.0-2.0-1.23","1067","54","post","8","evening","2026-04-08","2026-04-21","2026-04-29T00:09:00.003Z","Mozilla/5.0 (iPhone; CPU iPhone OS 18_7 like Mac OS X) AppleWebKit/605.1.15 (KHTML, like Gecko) Mobile/15E148","358","632","240","","2410","<div class=""prompt"" style=""font-size:24px; margin-bottom:20px;"">Which word describes you more?</div>","0","pairing","24","visionary","capable","PosPos","57","86","positive","positive","29","visionary","left","true"
"instructions","50","59707","0.0-3.0","1067","54","post","8","evening","2026-04-08","2026-04-21","2026-04-29T00:09:00.003Z","Mozilla/5.0 (iPhone; CPU iPhone OS 18_7 like Mac OS X) AppleWebKit/605.1.15 (KHTML, like Gecko) Mobile/15E148","358","632","240","[{""page_index"":0,""viewing_time"":717}]","717","","","","","","","","","","","","","","",""
