"trial_type","trial_index","time_elapsed","internal_node_id","PUNS_ID","session_number","session_phase","session_day","session_slot","ema_start_date","ema_post_start_date","experiment_start","browser","screen_width","screen_height","timezone_offset","view_history","rt","stimulus","response","which_experiment_phase","trial_number","left_word","right_word","valence","left_base_rating","right_base_rating","left_valence","right_valence","abs_diff","participant_response","chosen_side","valid_response"
"pavlovia","0","2084","0.0-0.0","1017","30","pre","10","evening","2026-02-16","2026-02-28","2026-02-26T04:09:00.360Z","Mozilla/5.0 (iPhone; CPU iPhone OS 18_7 like Mac OS X) AppleWebKit/605.1.15 (KHTML, like Gecko) Mobile/15E148","370","644","480","","","","","","","","","","","","","","","","",""
"instructions","1","5851","0.0-1.0","1017","30","pre","10","evening","2026-02-16","2026-02-28","2026-02-26T04:09:00.360Z","Mozilla/5.0 (iPhone; CPU iPhone OS 18_7 like Mac OS X) AppleWebKit/605.1.15 (KHTML, like Gecko) Mobile/15E148","370","644","480","[{""page_index"":0,""viewing_time"":1124},{""page_index"":1,""viewing_time"":614},{""page_index"":2,""viewing_time"":825},{""page_index"":3,""viewing_time"":1200}]","3764","","","","","","","","","","","","","","",""
"html-keyboard-response","2","6654","0.0-2.0-0.0","1017","30","pre","10","evening","2026-02-16","2026-02-28","2026-02-26T04:09:00.360Z","Mozilla/5.0 (iPhone; CPU iPhone OS 18_7 like Mac OS X) AppleWebKit/605.1.15 (KHTML, like Gecko) Mobile/15E148","370","644","480","","null","<div style=""font-size:60px;"">+</div>","null","fixation","","","","","","","","","","","",""
"html-button-response","3","9161","0.0-2.0-1.0","1017","30","pre","10","evening","2026-02-16","2026-02-28","2026-02-26T04:09:00.360Z","Mozilla/5.0 (iPhone; CPU iPhone OS 18_7 like Mac OS X) AppleWebKit/605.1.15 (KHTML, like Gecko) Mobile/15E148","370","644","480","","2503","<div class=""prompt"" style=""font-size:24px; margin-bottom:20px;"">Which word describes you more?</div>","1","pairing","1","respectable","companion","PosPos","79","100","positive","positive","21","companion","right","true"
"html-keyboard-response","4","9964","0.0-2.0-0.1","1017","30","pre","10","evening","2026-02-16","2026-02-28","2026-02-26T04:09:00.360Z","Mozilla/5.0 (iPhone; CPU iPhone OS 18_7 like Mac OS X) AppleWebKit/605.1.15 (KHTML, like Gecko) Mobile/15E148","370","644","480","","null","<div style=""font-size:60px;"">+</div>","null","fixation","","","","","","","","","","","",""
"html-button-response","5","12019","0.0-2.0-1.1","1017","30","pre","10","evening","2026-02-16","2026-02-28","2026-02-26T04:09:00.360Z","Mozilla/5.0 (iPhone; CPU iPhone OS 18_7 like Mac OS X) AppleWebKit/605.1.15 (KHTML, like Gecko) Mobile/15E148","370","644","480","","2054","<div class=""prompt"" style=""font-size:24px; margin-bottom:20px;"">Which word describes you more?</div>","0","pairing","2","decisive","jerk","PosNeg","49","0","positive","negative","49","decisive","left","true"
"html-keyboard-response","6","12822","0.0-2.0-0.2","1017","30","pre","10","evening","2026-02-16","2026-02-28","2026-02-26T04:09:00.360Z","Mozilla/5.0 (iPhone; CPU iPhone OS 18_7 like Mac OS X) AppleWebKit/605.1.15 (KHTML, like Gecko) Mobile/15E148","370","644","480","","null","<div style=""font-size:60px;"">+</div>","null","fixation","","","","","","","","","","","",""
"html-button-response","7","14419","0.0-2.0-1.2","1017","30","pre","10","evening","2026-02-16","2026-02-28","2026-02-26T04:09:00.360Z","Mozilla/5.0 (iPhone; CPU iPhone OS 18_7 like Mac OS X) AppleWebKit/605.1.15 (KHTML, like Gecko) Mobile/15E148","370","644","480","","1596","<div class=""prompt"" style=""font-size:24px; margin-bottom:20px;"">Which word describes you more?</div>","0","pairing","3","stingy","prick","NegNeg","27","2","negative","negative","25","stingy","left","true"
"html-keyboard-response","8","15221","0.0-2.0-0.3","1017","30","pre","10","evening","2026-02-16","2026-02-28","2026-02-26T04:09:00.360Z","Mozilla/5.0 (iPhone; CPU iPhone OS 18_7 like Mac OS X) AppleWebKit/605.1.15 (KHTML, like Gecko) Mobile/15E148","370","644","480","","null","<div style=""font-size:60px;"">+</div>","null","fixation","","","","","","","","","","","",""
"html-button-response","9","18070","0.0-2.0-1.3","1017","30","pre","10","evening","2026-02-16","2026-02-28","2026-02-26T04:09:00.360Z","Mozilla/5.0 (iPhone; CPU iPhone OS 18_7 like Mac OS X) AppleWebKit/605.1.15 (KHTML, like Gecko) Mobile/15E148","370","644","480","","2847","<div class=""prompt"" style=""font-size:24px; margin-bottom:20px;"">Which word describes you more?</div>","0","pairing","4","flawless","visionary","PosPos","0","77","positive","positive","77","flawless","left","true"
"html-keyboard-response","10","18872","0.0-2.0-0.4","1017","30","pre","10","evening","2026-02-16","2026-02-28","2026-02-26T04:09:00.360Z","Mozilla/5.0 (iPhone; CPU iPhone OS 18_7 like Mac OS X) AppleWebKit/605.1.15 (KHTML, like Gecko) Mobile/15E148","370","644","480","","null","<div style=""font-size:60px;"">+</div>","null","fixation","","","","","","","","","","","",""
"html-button-response","11","20762","0.0-2.0-1.4","1017","30","pre","10","evening","2026-02-16","2026-02-28","2026-02-26T04:09:00.360Z","Mozilla/5.0 (iPhone; CPU iPhone OS 18_7 like Mac OS X) AppleWebKit/605.1.15 (KHTML, like Gecko) Mobile/15E148","370","644","480","","1889","<div class=""prompt"" style=""font-size:24px; margin-bottom:20px;"">Which word describes you more?</div>","0","pairing","5","alluring","irritating","PosNeg","21","27","positive","negative","6","alluring","left","true"
"html-keyboard-response","12","21565","0.0-2.0-0.5","1017","30","pre","10","evening","2026-02-16","2026-02-28","2026-02-26T04:09:00.360Z","Mozilla/5.0 (iPhone; CPU iPhone OS 18_7 like Mac OS X) AppleWebKit/605.1.15 (KHTML, like Gecko) Mobile/15E148","370","644","480","","null","<div style=""font-size:60px;"">+</div>","null","fixation","","","","","","","","","","","",""
"html-button-response","13","23531","0.0-2.0-1.5","1017","30","pre","10","evening","2026-02-16","2026-02-28","2026-02-26T04:09:00.360Z","Mozilla/5.0 (iPhone; CPU iPhone OS 18_7 like Mac OS X) AppleWebKit/605.1.15 (KHTML, like Gecko) Mobile/15E148","370","644","480","","1962","<div class=""prompt"" style=""font-size:24px; margin-bottom:20px;"">Which word describes you more?</div>","0","pairing","6","sophisticated","satisfied","PosPos","86","77","positive","positive","9","sophisticated","left","true"
"html-keyboard-response","14","24333","0.0-2.0-0.6","1017","30","pre","10","evening","2026-02-16","2026-02-28","2026-02-26T04:09:00.360Z","Mozilla/5.0 (iPhone; CPU iPhone OS 18_7 like Mac OS X) AppleWebKit/605.1.15 (KHTML, like Gecko) Mobile/15E148","370","644","480","","null","<div style=""font-size:60px;"">+</div>","null","fixation","","","","","","","","","","","",""
"html-button-response","15","26864","0.0-2.0-1.6","1017","30","pre","10","evening","2026-02-16","2026-02-28","2026-02-26T04:09:00.360Z","Mozilla/5.0 (iPhone; CPU iPhone OS 18_7 like Mac OS X) AppleWebKit/605.1.15 (KHTML, like Gecko) Mobile/15E148","370","644","480","","2528","<div class=""prompt"" style=""font-size:24px; margin-bottom:20px;"">Which word describes you more?</div>","0","pairing","7","eloquent","menace","PosNeg","77","0","positive","negative","77","eloquent","left","true"
"html-keyboard-response","16","27666","0.0-2.0-0.7","1017","30","pre","10","evening","2026-02-16","2026-02-28","2026-02-26T04:09:00.360Z","Mozilla/5.0 (iPhone; CPU iPhone OS 18_7 like Mac OS X) AppleWebKit/605.1.15 (KHTML, like Gecko) Mobile/15E148","370","644","480","","null","<div style=""font-size:60px;"">+</div>","null","fixation","","","","","","","","","","","",""
"html-button-response","17","30405","0.0-2.0-1.7","1017","30","pre","10","evening","2026-02-16","2026-02-28","2026-02-26T04:09:00.360Z","Mozilla/5.0 (iPhone; CPU iPhone OS 18_7 like Mac OS X) AppleWebKit/605.1.15 (KHTML, like Gecko) Mobile/15E148","370","644","480","","2737","<div class=""prompt"" style=""font-size:24px; margin-bottom:20px;"">Which word describes you more?</div>","0","pairing","8","failure","creep","NegNeg","5","1","negative","negative","4","failure","left","true"
"html-keyboard-response","18","31207","0.0-2.0-0.8","1017","30","pre","10","evening","2026-02-16","2026-02-28","2026-02-26T04:09:00.360Z","Mozilla/5.0 (iPhone; CPU iPhone OS 18_7 like Mac OS X) AppleWebKit/605.1.15 (KHTML, like Gecko) Mobile/15E148","370","644","480","","null","<div style=""font-size:60px;"">+</div>","null","fixation","","","","","","","","","","","",""
"html-button-response","19","33439","0.0-2.0-1.8","1017","30","pre","10","evening","2026-02-16","2026-02-28","2026-02-26T04:09:00.360Z","Mozilla/5.0 (iPhone; CPU iPhone OS 18_7 like Mac OS X) AppleWebKit/605.1.15 (KHTML, like Gecko) Mobile/15E148","370","644","480","","2230","<div class=""prompt"" style=""font-size:24px; margin-bottom:20px;"">Which word describes you more?</div>","1","pairing","9","disastrous","coward","NegNeg","0","49","negative","negative","49","coward","right","true"
"html-keyboard-response","20","34241","0.0-2.0-0.9","1017","30","pre","10","evening","2026-02-16","2026-02-28","2026-02-26T04:09:00.360Z","Mozilla/5.0 (iPhone; CPU iPhone OS 18_7 like Mac OS X) AppleWebKit/605.1.15 (KHTML, like Gecko) Mobile/15E148","370","644","480","","null","<div style=""font-size:60px;"">+</div>","null","fixation","","","","","","","","","","","",""
"html-button-response","21","36615","0.0-2.0-1.9","1017","30","pre","10","evening","2026-02-16","2026-02-28","2026-02-26T04:09:00.360Z","Mozilla/5.0 (iPhone; CPU iPhone OS 18_7 like Mac OS X) AppleWebKit/605.1.15 (KHTML, like Gecko) Mobile/15E148","370","644","480","","2372","<div class=""prompt"" style=""font-size:24px; margin-bottom:20px;"">Which word describes you more?</div>","1","pairing","10","unlucky","stingy","NegNeg","9","27","negative","negative","18","stingy","right","true"
"html-keyboard-response","22","37417","0.0-2.0-0.10","1017","30","pre","10","evening","2026-02-16","2026-02-28","2026-02-26T04:09:00.360Z","Mozilla/5.0 (iPhone; CPU iPhone OS 18_7 like Mac OS X) AppleWebKit/605.1.15 (KHTML, like Gecko) Mobile/15E148","370","644","480","","null","<div style=""font-size:60px;"">+</div>","null","fixation","","","","","","","","","","","",""
"html-button-response","23","38831","0.0-2.0-1.10","1017","30","pre","10","evening","2026-02-16","2026-02-28","2026-02-26T04:09:00.360Z","Mozilla/5.0 (iPhone; CPU iPhone OS 18_7 like Mac OS X) AppleWebKit/605.1.15 (KHTML, like Gecko) Mobile/15E148","370","644","480","","1413","<div class=""prompt"" style=""font-size:24px; margin-bottom:20px;"">Which word describes you more?</div>","1","pairing","11","outcast","decisive","PosNeg","2","49","negative","positive","47","decisive","right","true"
"html-keyboard-response","24","39634","0.0-2.0-0.11","1017","30","pre","10","evening","2026-02-16","2026-02-28","2026-02-26T04:09:00.360Z","Mozilla/5.0 (iPhone; CPU iPhone OS 18_7 like Mac OS X) AppleWebKit/605.1.15 (KHTML, like Gecko) Mobile/15E148","370","644","480","","null","<div style=""font-size:60px;"">+</div>","null","fixation","","","","","","","","","","","",""
"html-button-response","25","41699","0.0-2.0-1.11","1017","30","pre","10","evening","2026-02-16","2026-02-28","2026-02-26T04:09:00.360Z","Mozilla/5.0 (iPhone; CPU iPhone OS 18_7 like Mac OS X) AppleWebKit/605.1.15 (KHTML, like Gecko) Mobile/15E148","370","644","480","","2063","<div class=""prompt"" style=""font-size:24px; margin-bottom:20px;"">Which word describes you more?</div>","0","pairing","12","distressed","expert","PosNeg","45","33","negative","positive","12","distressed","left","true"
"html-keyboard-response","26","42501","0.0-2.0-0.12","1017","30","pre","10","evening","2026-02-16","2026-02-28","2026-02-26T04:09:00.360Z","Mozilla/5.0 (iPhone; CPU iPhone OS 18_7 like Mac OS X) AppleWebKit/605.1.15 (KHTML, like Gecko) Mobile/15E148","370","644","480","","null","<div style=""font-size:60px;"">+</div>","null","fixation","","","","","","","","","","","",""
"html-button-response","27","44191","0.0-2.0-1.12","1017","30","pre","10","evening","2026-02-16","2026-02-28","2026-02-26T04:09:00.360Z","Mozilla/5.0 (iPhone; CPU iPhone OS 18_7 like Mac OS X) AppleWebKit/605.1.15 (KHTML, like Gecko) Mobile/15E148","370","644","480","","1687","<div class=""prompt"" style=""font-size:24px; margin-bottom:20px;"">Which word describes you more?</div>","0","pairing","13","thoughtful","unforgivable","PosNeg","100","3","positive","negative","97","thoughtful","left","true"
"html-keyboard-response","28","44993","0.0-2.0-0.13","1017","30","pre","10","evening","2026-02-16","2026-02-28","2026-02-26T04:09:00.360Z","Mozilla/5.0 (iPhone; CPU iPhone OS 18_7 like Mac OS X) AppleWebKit/605.1.15 (KHTML, like Gecko) Mobile/15E148","370","644","480","","null","<div style=""font-size:60px;"">+</div>","null","fixation","","","","","","","","","","","",""
"html-button-response","29","46217","0.0-2.0-1.13","1017","30","pre","10","evening","2026-02-16","2026-02-28","2026-02-26T04:09:00.360Z","Mozilla/5.0 (iPhone; CPU iPhone OS 18_7 like Mac OS X) AppleWebKit/605.1.15 (KHTML, like Gecko) Mobile/15E148","370","644","480","","1223","<div class=""prompt"" style=""font-size:24px; margin-bottom:20px;"">Which word describes you more?</div>","1","pairing","14","playful","knowledgeable","PosPos","28","88","positive","positive","60","knowledgeable","right","true"
"html-keyboard-response","30","47019","0.0-2.0-0.14","1017","30","pre","10","evening","2026-02-16","2026-02-28","2026-02-26T04:09:00.360Z","Mozilla/5.0 (iPhone; CPU iPhone OS 18_7 like Mac OS X) AppleWebKit/605.1.15 (KHTML, like Gecko) Mobile/15E148","370","644","480","","null","<div style=""font-size:60px;"">+</div>","null","fixation","","","","","","","","","","","",""
"html-button-response","31","48558","0.0-2.0-1.14","1017","30","pre","10","evening","2026-02-16","2026-02-28","2026-02-26T04:09:00.360Z","Mozilla/5.0 (iPhone; CPU iPhone OS 18_7 like Mac OS X) AppleWebKit/605.1.15 (KHTML, like Gecko) Mobile/15E148","370","644","480","","1538","<div class=""prompt"" style=""font-size:24px; margin-bottom:20px;"">Which word describes you more?</div>","0","pairing","15","unique","adorable","PosPos","88","15","positive","positive","73","unique","left","true"
"html-keyboard-response","32","49361","0.0-2.0-0.15","1017","30","pre","10","evening","2026-02-16","2026-02-28","2026-02-26T04:09:00.360Z","Mozilla/5.0 (iPhone; CPU iPhone OS 18_7 like Mac OS X) AppleWebKit/605.1.15 (KHTML, like Gecko) Mobile/15E148","370","644","480","","null","<div style=""font-size:60px;"">+</div>","null","fixation","","","","","","","","","","","",""
"html-button-response","33","50592","0.0-2.0-1.15","1017","30","pre","10","evening","2026-02-16","2026-02-28","2026-02-26T04:09:00.360Z","Mozilla/5.0 (iPhone; CPU iPhone OS 18_7 like Mac OS X) AppleWebKit/605.1.15 (KHTML, like Gecko) Mobile/15E148","370","644","480","","1229","<div class=""prompt"" style=""font-size:24px; margin-bottom:20px;"">Which word describes you more?</div>","1","pairing","16","blissful","distressed","PosNeg","7","45","positive","negative","38","distressed","right","true"
"html-keyboard-response","34","51394","0.0-2.0-0.16","1017","30","pre","10","evening","2026-02-16","2026-02-28","2026-02-26T04:09:00.360Z","Mozilla/5.0 (iPhone; CPU iPhone OS 18_7 like Mac OS X) AppleWebKit/605.1.15 (KHTML, like Gecko) Mobile/15E148","370","644","480","","null","<div style=""font-size:60px;"">+</div>","null","fixation","","","","","","","","","","","",""
"html-button-response","35","53026","0.0-2.0-1.16","1017","30","pre","10","evening","2026-02-16","2026-02-28","2026-02-26T04:09:00.360Z","Mozilla/5.0 (iPhone; CPU iPhone OS 18_7 like Mac OS X) AppleWebKit/605.1.15 (KHTML, like Gecko) Mobile/15E148","370","644","480","","1631","<div class=""prompt"" style=""font-size:24px; margin-bottom:20px;"">Which word describes you more?</div>","0","pairing","17","goodwilled","decisive","PosPos","83","49","positive","positive","34","goodwilled","left","true"
"html-keyboard-response","36","53828","0.0-2.0-0.17","1017","30","pre","10","evening","2026-02-16","2026-02-28","2026-02-26T04:09:00.360Z","Mozilla/5.0 (iPhone; CPU iPhone OS 18_7 like Mac OS X) AppleWebKit/605.1.15 (KHTML, like Gecko) Mobile/15E148","370","644","480","","null","<div style=""font-size:60px;"">+</div>","null","fixation","","","","","","","","","","","",""
"html-button-response","37","55552","0.0-2.0-1.17","1017","30","pre","10","evening","2026-02-16","2026-02-28","2026-02-26T04:09:00.360Z","Mozilla/5.0 (iPhone; CPU iPhone OS 18_7 like Mac OS X) AppleWebKit/605.1.15 (KHTML, like Gecko) Mobile/15E148","370","644","480","","1722","<div class=""prompt"" style=""font-size:24px; margin-bottom:20px;"">Which word describes you more?</div>","0","pairing","18","adorable","immoral","PosNeg","15","0","positive","negative","15","adorable","left","true"
"html-keyboard-response","38","56354","0.0-2.0-0.18","1017","30","pre","10","evening","2026-02-16","2026-02-28","2026-02-26T04:09:00.360Z","Mozilla/5.0 (iPhone; CPU iPhone OS 18_7 like Mac OS X) AppleWebKit/605.1.15 (KHTML, like Gecko) Mobile/15E148","370","644","480","","null","<div style=""font-size:60px;"">+</div>","null","fixation","","","","","","","","","","","",""
"html-button-response","39","57927","0.0-2.0-1.18","1017","30","pre","10","evening","2026-02-16","2026-02-28","2026-02-26T04:09:00.360Z","Mozilla/5.0 (iPhone; CPU iPhone OS 18_7 like Mac OS X) AppleWebKit/605.1.15 (KHTML, like Gecko) Mobile/15E148","370","644","480","","1572","<div class=""prompt"" style=""font-size:24px; margin-bottom:20px;"">Which word describes you more?</div>","1","pairing","19","disgusting","legendary","PosNeg","0","10","negative","positive","10","legendary","right","true"
"html-keyboard-response","40","58729","0.0-2.0-0.19","1017","30","pre","10","evening","2026-02-16","2026-02-28","2026-02-26T04:09:00.360Z","Mozilla/5.0 (iPhone; CPU iPhone OS 18_7 like Mac OS X) AppleWebKit/605.1.15 (KHTML, like Gecko) Mobile/15E148","370","644","480","","null","<div style=""font-size:60px;"">+</div>","null","fixation","","","","","","","","","","","",""
"html-button-response","41","60219","0.0-2.0-1.19","1017","30","pre","10","evening","2026-02-16","2026-02-28","2026-02-26T04:09:00.360Z","Mozilla/5.0 (iPhone; CPU iPhone OS 18_7 like Mac OS X) AppleWebKit/605.1.15 (KHTML, like Gecko) Mobile/15E148","370","644","480","","1489","<div class=""prompt"" style=""font-size:24px; margin-bottom:20px;"">Which word describes you more?</div>","1","pairing","20","sadistic","energetic","PosNeg","2","73","negative","positive","71","energetic","right","true"
"html-keyboard-response","42","61021","0.0-2.0-0.20","1017","30","pre","10","evening","2026-02-16","2026-02-28","2026-02-26T04:09:00.360Z","Mozilla/5.0 (iPhone; CPU iPhone OS 18_7 like Mac OS X) AppleWebKit/605.1.15 (KHTML, like Gecko) Mobile/15E148","370","644","480","","null","<div style=""font-size:60px;"">+</div>","null","fixation","","","","","","","","","","","",""
"html-button-response","43","62761","0.0-2.0-1.20","1017","30","pre","10","evening","2026-02-16","2026-02-28","2026-02-26T04:09:00.360Z","Mozilla/5.0 (iPhone; CPU iPhone OS 18_7 like Mac OS X) AppleWebKit/605.1.15 (KHTML, like Gecko) Mobile/15E148","370","644","480","","1737","<div class=""prompt"" style=""font-size:24px; margin-bottom:20px;"">Which word describes you more?</div>","1","pairing","21","bully","terrible","NegNeg","0","1","negative","negative","1","terrible","right","true"
"html-keyboard-response","44","63563","0.0-2.0-0.21","1017","30","pre","10","evening","2026-02-16","2026-02-28","2026-02-26T04:09:00.360Z","Mozilla/5.0 (iPhone; CPU iPhone OS 18_7 like Mac OS X) AppleWebKit/605.1.15 (KHTML, like Gecko) Mobile/15E148","370","644","480","","null","<div style=""font-size:60px;"">+</div>","null","fixation","","","","","","","","","","","",""
"html-button-response","45","64803","0.0-2.0-1.21","1017","30","pre","10","evening","2026-02-16","2026-02-28","2026-02-26T04:09:00.360Z","Mozilla/5.0 (iPhone; CPU iPhone OS 18_7 like Mac OS X) AppleWebKit/605.1.15 (KHTML, like Gecko) Mobile/15E148","370","644","480","","1239","<div class=""prompt"" style=""font-size:24px; margin-bottom:20px;"">Which word describes you more?</div>","0","pairing","22","awkward","slob","NegNeg","49","0","negative","negative","49","awkward","left","true"
"html-keyboard-response","46","65605","0.0-2.0-0.22","1017","30","pre","10","evening","2026-02-16","2026-02-28","2026-02-26T04:09:00.360Z","Mozilla/5.0 (iPhone; CPU iPhone OS 18_7 like Mac OS X) AppleWebKit/605.1.15 (KHTML, like Gecko) Mobile/15E148","370","644","480","","null","<div style=""font-size:60px;"">+</div>","null","fixation","","","","","","","","","","","",""
"html-button-response","47","66904","0.0-2.0-1.22","1017","30","pre","10","evening","2026-02-16","2026-02-28","2026-02-26T04:09:00.360Z","Mozilla/5.0 (iPhone; CPU iPhone OS 18_7 like Mac OS X) AppleWebKit/605.1.15 (KHTML, like Gecko) Mobile/15E148","370","644","480","","1297","<div class=""prompt"" style=""font-size:24px; margin-bottom:20px;"">Which word describes you more?</div>","0","pairing","23","distressed","legendary","PosNeg","45","10","negative","positive","35","distressed","left","true"
"html-keyboard-response","48","67706","0.0-2.0-0.23","1017","30","pre","10","evening","2026-02-16","2026-02-28","2026-02-26T04:09:00.360Z","Mozilla/5.0 (iPhone; CPU iPhone OS 18_7 like Mac OS X) AppleWebKit/605.1.15 (KHTML, like Gecko) Mobile/15E148","370","644","480","","null","<div style=""font-size:60px;"">+</div>","null","fixation","","","","","","","","","","","",""
"html-button-response","49","69146","0.0-2.0-1.23","1017","30","pre","10","evening","2026-02-16","2026-02-28","2026-02-26T04:09:00.360Z","Mozilla/5.0 (iPhone; CPU iPhone OS 18_7 like Mac OS X) AppleWebKit/605.1.15 (KHTML, like Gecko) Mobile/15E148","370","644","480","","1436","<div class=""prompt"" style=""font-size:24px; margin-bottom:20px;"">Which word describes you more?</div>","0","pairing","24","smiley","repulsive","PosNeg","100","2","positive","negative","98","smiley","left","true"
"instructions","50","70137","0.0-3.0","1017","30","pre","10","evening","2026-02-16","2026-02-28","2026-02-26T04:09:00.360Z","Mozilla/5.0 (iPhone; CPU iPhone OS 18_7 like Mac OS X) AppleWebKit/605.1.15 (KHTML, like Gecko) Mobile/15E148","370","644","480","[{""page_index"":0,""viewing_time"":990}]","990","","","","","","","","","","","","","","",""
