"trial_type","trial_index","time_elapsed","internal_node_id","PUNS_ID","session_number","session_phase","session_day","session_slot","ema_start_date","ema_post_start_date","experiment_start","browser","screen_width","screen_height","timezone_offset","view_history","rt","stimulus","response","which_experiment_phase","trial_number","left_word","right_word","valence","left_base_rating","right_base_rating","left_valence","right_valence","abs_diff","participant_response","chosen_side","valid_response"
"pavlovia","0","1550","0.0-0.0","1086","15","pre","5","evening","2026-05-12","2026-05-24","2026-05-17T05:21:30.954Z","Mozilla/5.0 (iPhone; CPU iPhone OS 18_7 like Mac OS X) AppleWebKit/605.1.15 (KHTML, like Gecko) Mobile/15E148","361","623","420","","","","","","","","","","","","","","","","",""
"instructions","1","5166","0.0-1.0","1086","15","pre","5","evening","2026-05-12","2026-05-24","2026-05-17T05:21:30.954Z","Mozilla/5.0 (iPhone; CPU iPhone OS 18_7 like Mac OS X) AppleWebKit/605.1.15 (KHTML, like Gecko) Mobile/15E148","361","623","420","[{""page_index"":0,""viewing_time"":692},{""page_index"":1,""viewing_time"":609},{""page_index"":2,""viewing_time"":1614},{""page_index"":3,""viewing_time"":699}]","3614","","","","","","","","","","","","","","",""
"html-keyboard-response","2","5970","0.0-2.0-0.0","1086","15","pre","5","evening","2026-05-12","2026-05-24","2026-05-17T05:21:30.954Z","Mozilla/5.0 (iPhone; CPU iPhone OS 18_7 like Mac OS X) AppleWebKit/605.1.15 (KHTML, like Gecko) Mobile/15E148","361","623","420","","null","<div style=""font-size:60px;"">+</div>","null","fixation","","","","","","","","","","","",""
"html-button-response","3","7567","0.0-2.0-1.0","1086","15","pre","5","evening","2026-05-12","2026-05-24","2026-05-17T05:21:30.954Z","Mozilla/5.0 (iPhone; CPU iPhone OS 18_7 like Mac OS X) AppleWebKit/605.1.15 (KHTML, like Gecko) Mobile/15E148","361","623","420","","1590","<div class=""prompt"" style=""font-size:24px; margin-bottom:20px;"">Which word describes you more?</div>","0","pairing","1","burden","disgusting","NegNeg","60","1","negative","negative","59","burden","left","true"
"html-keyboard-response","4","8370","0.0-2.0-0.1","1086","15","pre","5","evening","2026-05-12","2026-05-24","2026-05-17T05:21:30.954Z","Mozilla/5.0 (iPhone; CPU iPhone OS 18_7 like Mac OS X) AppleWebKit/605.1.15 (KHTML, like Gecko) Mobile/15E148","361","623","420","","null","<div style=""font-size:60px;"">+</div>","null","fixation","","","","","","","","","","","",""
"html-button-response","5","9977","0.0-2.0-1.1","1086","15","pre","5","evening","2026-05-12","2026-05-24","2026-05-17T05:21:30.954Z","Mozilla/5.0 (iPhone; CPU iPhone OS 18_7 like Mac OS X) AppleWebKit/605.1.15 (KHTML, like Gecko) Mobile/15E148","361","623","420","","1604","<div class=""prompt"" style=""font-size:24px; margin-bottom:20px;"">Which word describes you more?</div>","0","pairing","2","companion","valued","PosPos","92","93","positive","positive","1","companion","left","true"
"html-keyboard-response","6","10779","0.0-2.0-0.2","1086","15","pre","5","evening","2026-05-12","2026-05-24","2026-05-17T05:21:30.954Z","Mozilla/5.0 (iPhone; CPU iPhone OS 18_7 like Mac OS X) AppleWebKit/605.1.15 (KHTML, like Gecko) Mobile/15E148","361","623","420","","null","<div style=""font-size:60px;"">+</div>","null","fixation","","","","","","","","","","","",""
"html-button-response","7","13660","0.0-2.0-1.2","1086","15","pre","5","evening","2026-05-12","2026-05-24","2026-05-17T05:21:30.954Z","Mozilla/5.0 (iPhone; CPU iPhone OS 18_7 like Mac OS X) AppleWebKit/605.1.15 (KHTML, like Gecko) Mobile/15E148","361","623","420","","2876","<div class=""prompt"" style=""font-size:24px; margin-bottom:20px;"">Which word describes you more?</div>","0","pairing","3","reliable","asset","PosPos","61","100","positive","positive","39","reliable","left","true"
"html-keyboard-response","8","14463","0.0-2.0-0.3","1086","15","pre","5","evening","2026-05-12","2026-05-24","2026-05-17T05:21:30.954Z","Mozilla/5.0 (iPhone; CPU iPhone OS 18_7 like Mac OS X) AppleWebKit/605.1.15 (KHTML, like Gecko) Mobile/15E148","361","623","420","","null","<div style=""font-size:60px;"">+</div>","null","fixation","","","","","","","","","","","",""
"html-button-response","9","16318","0.0-2.0-1.3","1086","15","pre","5","evening","2026-05-12","2026-05-24","2026-05-17T05:21:30.954Z","Mozilla/5.0 (iPhone; CPU iPhone OS 18_7 like Mac OS X) AppleWebKit/605.1.15 (KHTML, like Gecko) Mobile/15E148","361","623","420","","1853","<div class=""prompt"" style=""font-size:24px; margin-bottom:20px;"">Which word describes you more?</div>","0","pairing","4","stingy","dull","NegNeg","72","1","negative","negative","71","stingy","left","true"
"html-keyboard-response","10","17121","0.0-2.0-0.4","1086","15","pre","5","evening","2026-05-12","2026-05-24","2026-05-17T05:21:30.954Z","Mozilla/5.0 (iPhone; CPU iPhone OS 18_7 like Mac OS X) AppleWebKit/605.1.15 (KHTML, like Gecko) Mobile/15E148","361","623","420","","null","<div style=""font-size:60px;"">+</div>","null","fixation","","","","","","","","","","","",""
"html-button-response","11","18648","0.0-2.0-1.4","1086","15","pre","5","evening","2026-05-12","2026-05-24","2026-05-17T05:21:30.954Z","Mozilla/5.0 (iPhone; CPU iPhone OS 18_7 like Mac OS X) AppleWebKit/605.1.15 (KHTML, like Gecko) Mobile/15E148","361","623","420","","1526","<div class=""prompt"" style=""font-size:24px; margin-bottom:20px;"">Which word describes you more?</div>","1","pairing","5","spectacular","jealous","PosNeg","17","82","positive","negative","65","jealous","right","true"
"html-keyboard-response","12","19451","0.0-2.0-0.5","1086","15","pre","5","evening","2026-05-12","2026-05-24","2026-05-17T05:21:30.954Z","Mozilla/5.0 (iPhone; CPU iPhone OS 18_7 like Mac OS X) AppleWebKit/605.1.15 (KHTML, like Gecko) Mobile/15E148","361","623","420","","null","<div style=""font-size:60px;"">+</div>","null","fixation","","","","","","","","","","","",""
"html-button-response","13","20746","0.0-2.0-1.5","1086","15","pre","5","evening","2026-05-12","2026-05-24","2026-05-17T05:21:30.954Z","Mozilla/5.0 (iPhone; CPU iPhone OS 18_7 like Mac OS X) AppleWebKit/605.1.15 (KHTML, like Gecko) Mobile/15E148","361","623","420","","1292","<div class=""prompt"" style=""font-size:24px; margin-bottom:20px;"">Which word describes you more?</div>","0","pairing","6","hesitant","esteemed","PosNeg","57","65","negative","positive","8","hesitant","left","true"
"html-keyboard-response","14","21549","0.0-2.0-0.6","1086","15","pre","5","evening","2026-05-12","2026-05-24","2026-05-17T05:21:30.954Z","Mozilla/5.0 (iPhone; CPU iPhone OS 18_7 like Mac OS X) AppleWebKit/605.1.15 (KHTML, like Gecko) Mobile/15E148","361","623","420","","null","<div style=""font-size:60px;"">+</div>","null","fixation","","","","","","","","","","","",""
"html-button-response","15","23842","0.0-2.0-1.6","1086","15","pre","5","evening","2026-05-12","2026-05-24","2026-05-17T05:21:30.954Z","Mozilla/5.0 (iPhone; CPU iPhone OS 18_7 like Mac OS X) AppleWebKit/605.1.15 (KHTML, like Gecko) Mobile/15E148","361","623","420","","2291","<div class=""prompt"" style=""font-size:24px; margin-bottom:20px;"">Which word describes you more?</div>","0","pairing","7","excited","adorable","PosPos","82","10","positive","positive","72","excited","left","true"
"html-keyboard-response","16","24645","0.0-2.0-0.7","1086","15","pre","5","evening","2026-05-12","2026-05-24","2026-05-17T05:21:30.954Z","Mozilla/5.0 (iPhone; CPU iPhone OS 18_7 like Mac OS X) AppleWebKit/605.1.15 (KHTML, like Gecko) Mobile/15E148","361","623","420","","null","<div style=""font-size:60px;"">+</div>","null","fixation","","","","","","","","","","","",""
"html-button-response","17","25972","0.0-2.0-1.7","1086","15","pre","5","evening","2026-05-12","2026-05-24","2026-05-17T05:21:30.954Z","Mozilla/5.0 (iPhone; CPU iPhone OS 18_7 like Mac OS X) AppleWebKit/605.1.15 (KHTML, like Gecko) Mobile/15E148","361","623","420","","1324","<div class=""prompt"" style=""font-size:24px; margin-bottom:20px;"">Which word describes you more?</div>","1","pairing","8","adorable","committed","PosPos","10","85","positive","positive","75","committed","right","true"
"html-keyboard-response","18","26774","0.0-2.0-0.8","1086","15","pre","5","evening","2026-05-12","2026-05-24","2026-05-17T05:21:30.954Z","Mozilla/5.0 (iPhone; CPU iPhone OS 18_7 like Mac OS X) AppleWebKit/605.1.15 (KHTML, like Gecko) Mobile/15E148","361","623","420","","null","<div style=""font-size:60px;"">+</div>","null","fixation","","","","","","","","","","","",""
"html-button-response","19","27969","0.0-2.0-1.8","1086","15","pre","5","evening","2026-05-12","2026-05-24","2026-05-17T05:21:30.954Z","Mozilla/5.0 (iPhone; CPU iPhone OS 18_7 like Mac OS X) AppleWebKit/605.1.15 (KHTML, like Gecko) Mobile/15E148","361","623","420","","1192","<div class=""prompt"" style=""font-size:24px; margin-bottom:20px;"">Which word describes you more?</div>","1","pairing","9","sophisticated","regretful","PosNeg","67","63","positive","negative","4","regretful","right","true"
"html-keyboard-response","20","28771","0.0-2.0-0.9","1086","15","pre","5","evening","2026-05-12","2026-05-24","2026-05-17T05:21:30.954Z","Mozilla/5.0 (iPhone; CPU iPhone OS 18_7 like Mac OS X) AppleWebKit/605.1.15 (KHTML, like Gecko) Mobile/15E148","361","623","420","","null","<div style=""font-size:60px;"">+</div>","null","fixation","","","","","","","","","","","",""
"html-button-response","21","30032","0.0-2.0-1.9","1086","15","pre","5","evening","2026-05-12","2026-05-24","2026-05-17T05:21:30.954Z","Mozilla/5.0 (iPhone; CPU iPhone OS 18_7 like Mac OS X) AppleWebKit/605.1.15 (KHTML, like Gecko) Mobile/15E148","361","623","420","","1259","<div class=""prompt"" style=""font-size:24px; margin-bottom:20px;"">Which word describes you more?</div>","1","pairing","10","idealistic","terrible","PosNeg","70","9","positive","negative","61","terrible","right","true"
"html-keyboard-response","22","30834","0.0-2.0-0.10","1086","15","pre","5","evening","2026-05-12","2026-05-24","2026-05-17T05:21:30.954Z","Mozilla/5.0 (iPhone; CPU iPhone OS 18_7 like Mac OS X) AppleWebKit/605.1.15 (KHTML, like Gecko) Mobile/15E148","361","623","420","","null","<div style=""font-size:60px;"">+</div>","null","fixation","","","","","","","","","","","",""
"html-button-response","23","33810","0.0-2.0-1.10","1086","15","pre","5","evening","2026-05-12","2026-05-24","2026-05-17T05:21:30.954Z","Mozilla/5.0 (iPhone; CPU iPhone OS 18_7 like Mac OS X) AppleWebKit/605.1.15 (KHTML, like Gecko) Mobile/15E148","361","623","420","","2974","<div class=""prompt"" style=""font-size:24px; margin-bottom:20px;"">Which word describes you more?</div>","1","pairing","11","spectacular","irritating","PosNeg","17","34","positive","negative","17","irritating","right","true"
"html-keyboard-response","24","34613","0.0-2.0-0.11","1086","15","pre","5","evening","2026-05-12","2026-05-24","2026-05-17T05:21:30.954Z","Mozilla/5.0 (iPhone; CPU iPhone OS 18_7 like Mac OS X) AppleWebKit/605.1.15 (KHTML, like Gecko) Mobile/15E148","361","623","420","","null","<div style=""font-size:60px;"">+</div>","null","fixation","","","","","","","","","","","",""
"html-button-response","25","36488","0.0-2.0-1.11","1086","15","pre","5","evening","2026-05-12","2026-05-24","2026-05-17T05:21:30.954Z","Mozilla/5.0 (iPhone; CPU iPhone OS 18_7 like Mac OS X) AppleWebKit/605.1.15 (KHTML, like Gecko) Mobile/15E148","361","623","420","","1873","<div class=""prompt"" style=""font-size:24px; margin-bottom:20px;"">Which word describes you more?</div>","1","pairing","12","stingy","flawless","PosNeg","72","12","negative","positive","60","flawless","right","true"
"html-keyboard-response","26","37291","0.0-2.0-0.12","1086","15","pre","5","evening","2026-05-12","2026-05-24","2026-05-17T05:21:30.954Z","Mozilla/5.0 (iPhone; CPU iPhone OS 18_7 like Mac OS X) AppleWebKit/605.1.15 (KHTML, like Gecko) Mobile/15E148","361","623","420","","null","<div style=""font-size:60px;"">+</div>","null","fixation","","","","","","","","","","","",""
"html-button-response","27","39367","0.0-2.0-1.12","1086","15","pre","5","evening","2026-05-12","2026-05-24","2026-05-17T05:21:30.954Z","Mozilla/5.0 (iPhone; CPU iPhone OS 18_7 like Mac OS X) AppleWebKit/605.1.15 (KHTML, like Gecko) Mobile/15E148","361","623","420","","2075","<div class=""prompt"" style=""font-size:24px; margin-bottom:20px;"">Which word describes you more?</div>","0","pairing","13","disastrous","anxious","NegNeg","0","86","negative","negative","86","disastrous","left","true"
"html-keyboard-response","28","40170","0.0-2.0-0.13","1086","15","pre","5","evening","2026-05-12","2026-05-24","2026-05-17T05:21:30.954Z","Mozilla/5.0 (iPhone; CPU iPhone OS 18_7 like Mac OS X) AppleWebKit/605.1.15 (KHTML, like Gecko) Mobile/15E148","361","623","420","","null","<div style=""font-size:60px;"">+</div>","null","fixation","","","","","","","","","","","",""
"html-button-response","29","41215","0.0-2.0-1.13","1086","15","pre","5","evening","2026-05-12","2026-05-24","2026-05-17T05:21:30.954Z","Mozilla/5.0 (iPhone; CPU iPhone OS 18_7 like Mac OS X) AppleWebKit/605.1.15 (KHTML, like Gecko) Mobile/15E148","361","623","420","","1043","<div class=""prompt"" style=""font-size:24px; margin-bottom:20px;"">Which word describes you more?</div>","0","pairing","14","distressed","spectacular","PosNeg","84","17","negative","positive","67","distressed","left","true"
"html-keyboard-response","30","42017","0.0-2.0-0.14","1086","15","pre","5","evening","2026-05-12","2026-05-24","2026-05-17T05:21:30.954Z","Mozilla/5.0 (iPhone; CPU iPhone OS 18_7 like Mac OS X) AppleWebKit/605.1.15 (KHTML, like Gecko) Mobile/15E148","361","623","420","","null","<div style=""font-size:60px;"">+</div>","null","fixation","","","","","","","","","","","",""
"html-button-response","31","43727","0.0-2.0-1.14","1086","15","pre","5","evening","2026-05-12","2026-05-24","2026-05-17T05:21:30.954Z","Mozilla/5.0 (iPhone; CPU iPhone OS 18_7 like Mac OS X) AppleWebKit/605.1.15 (KHTML, like Gecko) Mobile/15E148","361","623","420","","1707","<div class=""prompt"" style=""font-size:24px; margin-bottom:20px;"">Which word describes you more?</div>","0","pairing","15","lovable","sensible","PosPos","97","58","positive","positive","39","lovable","left","true"
"html-keyboard-response","32","44529","0.0-2.0-0.15","1086","15","pre","5","evening","2026-05-12","2026-05-24","2026-05-17T05:21:30.954Z","Mozilla/5.0 (iPhone; CPU iPhone OS 18_7 like Mac OS X) AppleWebKit/605.1.15 (KHTML, like Gecko) Mobile/15E148","361","623","420","","null","<div style=""font-size:60px;"">+</div>","null","fixation","","","","","","","","","","","",""
"html-button-response","33","45558","0.0-2.0-1.15","1086","15","pre","5","evening","2026-05-12","2026-05-24","2026-05-17T05:21:30.954Z","Mozilla/5.0 (iPhone; CPU iPhone OS 18_7 like Mac OS X) AppleWebKit/605.1.15 (KHTML, like Gecko) Mobile/15E148","361","623","420","","1026","<div class=""prompt"" style=""font-size:24px; margin-bottom:20px;"">Which word describes you more?</div>","0","pairing","16","problematic","pleased","PosNeg","60","45","negative","positive","15","problematic","left","true"
"html-keyboard-response","34","46360","0.0-2.0-0.16","1086","15","pre","5","evening","2026-05-12","2026-05-24","2026-05-17T05:21:30.954Z","Mozilla/5.0 (iPhone; CPU iPhone OS 18_7 like Mac OS X) AppleWebKit/605.1.15 (KHTML, like Gecko) Mobile/15E148","361","623","420","","null","<div style=""font-size:60px;"">+</div>","null","fixation","","","","","","","","","","","",""
"html-button-response","35","49069","0.0-2.0-1.16","1086","15","pre","5","evening","2026-05-12","2026-05-24","2026-05-17T05:21:30.954Z","Mozilla/5.0 (iPhone; CPU iPhone OS 18_7 like Mac OS X) AppleWebKit/605.1.15 (KHTML, like Gecko) Mobile/15E148","361","623","420","","2707","<div class=""prompt"" style=""font-size:24px; margin-bottom:20px;"">Which word describes you more?</div>","1","pairing","17","garbage","pleased","PosNeg","0","45","negative","positive","45","pleased","right","true"
"html-keyboard-response","36","49872","0.0-2.0-0.17","1086","15","pre","5","evening","2026-05-12","2026-05-24","2026-05-17T05:21:30.954Z","Mozilla/5.0 (iPhone; CPU iPhone OS 18_7 like Mac OS X) AppleWebKit/605.1.15 (KHTML, like Gecko) Mobile/15E148","361","623","420","","null","<div style=""font-size:60px;"">+</div>","null","fixation","","","","","","","","","","","",""
"html-button-response","37","51230","0.0-2.0-1.17","1086","15","pre","5","evening","2026-05-12","2026-05-24","2026-05-17T05:21:30.954Z","Mozilla/5.0 (iPhone; CPU iPhone OS 18_7 like Mac OS X) AppleWebKit/605.1.15 (KHTML, like Gecko) Mobile/15E148","361","623","420","","1355","<div class=""prompt"" style=""font-size:24px; margin-bottom:20px;"">Which word describes you more?</div>","1","pairing","18","malicious","failure","NegNeg","7","4","negative","negative","3","failure","right","true"
"html-keyboard-response","38","52032","0.0-2.0-0.18","1086","15","pre","5","evening","2026-05-12","2026-05-24","2026-05-17T05:21:30.954Z","Mozilla/5.0 (iPhone; CPU iPhone OS 18_7 like Mac OS X) AppleWebKit/605.1.15 (KHTML, like Gecko) Mobile/15E148","361","623","420","","null","<div style=""font-size:60px;"">+</div>","null","fixation","","","","","","","","","","","",""
"html-button-response","39","53545","0.0-2.0-1.18","1086","15","pre","5","evening","2026-05-12","2026-05-24","2026-05-17T05:21:30.954Z","Mozilla/5.0 (iPhone; CPU iPhone OS 18_7 like Mac OS X) AppleWebKit/605.1.15 (KHTML, like Gecko) Mobile/15E148","361","623","420","","1511","<div class=""prompt"" style=""font-size:24px; margin-bottom:20px;"">Which word describes you more?</div>","1","pairing","19","garbage","idealistic","PosNeg","0","70","negative","positive","70","idealistic","right","true"
"html-keyboard-response","40","54348","0.0-2.0-0.19","1086","15","pre","5","evening","2026-05-12","2026-05-24","2026-05-17T05:21:30.954Z","Mozilla/5.0 (iPhone; CPU iPhone OS 18_7 like Mac OS X) AppleWebKit/605.1.15 (KHTML, like Gecko) Mobile/15E148","361","623","420","","null","<div style=""font-size:60px;"">+</div>","null","fixation","","","","","","","","","","","",""
"html-button-response","41","56224","0.0-2.0-1.19","1086","15","pre","5","evening","2026-05-12","2026-05-24","2026-05-17T05:21:30.954Z","Mozilla/5.0 (iPhone; CPU iPhone OS 18_7 like Mac OS X) AppleWebKit/605.1.15 (KHTML, like Gecko) Mobile/15E148","361","623","420","","1874","<div class=""prompt"" style=""font-size:24px; margin-bottom:20px;"">Which word describes you more?</div>","1","pairing","20","unforgivable","defective","NegNeg","4","5","negative","negative","1","defective","right","true"
"html-keyboard-response","42","57026","0.0-2.0-0.20","1086","15","pre","5","evening","2026-05-12","2026-05-24","2026-05-17T05:21:30.954Z","Mozilla/5.0 (iPhone; CPU iPhone OS 18_7 like Mac OS X) AppleWebKit/605.1.15 (KHTML, like Gecko) Mobile/15E148","361","623","420","","null","<div style=""font-size:60px;"">+</div>","null","fixation","","","","","","","","","","","",""
"html-button-response","43","59086","0.0-2.0-1.20","1086","15","pre","5","evening","2026-05-12","2026-05-24","2026-05-17T05:21:30.954Z","Mozilla/5.0 (iPhone; CPU iPhone OS 18_7 like Mac OS X) AppleWebKit/605.1.15 (KHTML, like Gecko) Mobile/15E148","361","623","420","","2058","<div class=""prompt"" style=""font-size:24px; margin-bottom:20px;"">Which word describes you more?</div>","1","pairing","21","enthusiastic","excited","PosPos","90","82","positive","positive","8","excited","right","true"
"html-keyboard-response","44","59889","0.0-2.0-0.21","1086","15","pre","5","evening","2026-05-12","2026-05-24","2026-05-17T05:21:30.954Z","Mozilla/5.0 (iPhone; CPU iPhone OS 18_7 like Mac OS X) AppleWebKit/605.1.15 (KHTML, like Gecko) Mobile/15E148","361","623","420","","null","<div style=""font-size:60px;"">+</div>","null","fixation","","","","","","","","","","","",""
"html-button-response","45","60950","0.0-2.0-1.21","1086","15","pre","5","evening","2026-05-12","2026-05-24","2026-05-17T05:21:30.954Z","Mozilla/5.0 (iPhone; CPU iPhone OS 18_7 like Mac OS X) AppleWebKit/605.1.15 (KHTML, like Gecko) Mobile/15E148","361","623","420","","1059","<div class=""prompt"" style=""font-size:24px; margin-bottom:20px;"">Which word describes you more?</div>","1","pairing","22","adorable","anxious","PosNeg","10","86","positive","negative","76","anxious","right","true"
"html-keyboard-response","46","61752","0.0-2.0-0.22","1086","15","pre","5","evening","2026-05-12","2026-05-24","2026-05-17T05:21:30.954Z","Mozilla/5.0 (iPhone; CPU iPhone OS 18_7 like Mac OS X) AppleWebKit/605.1.15 (KHTML, like Gecko) Mobile/15E148","361","623","420","","null","<div style=""font-size:60px;"">+</div>","null","fixation","","","","","","","","","","","",""
"html-button-response","47","64044","0.0-2.0-1.22","1086","15","pre","5","evening","2026-05-12","2026-05-24","2026-05-17T05:21:30.954Z","Mozilla/5.0 (iPhone; CPU iPhone OS 18_7 like Mac OS X) AppleWebKit/605.1.15 (KHTML, like Gecko) Mobile/15E148","361","623","420","","2288","<div class=""prompt"" style=""font-size:24px; margin-bottom:20px;"">Which word describes you more?</div>","0","pairing","23","courteous","slob","PosNeg","68","0","positive","negative","68","courteous","left","true"
"html-keyboard-response","48","64847","0.0-2.0-0.23","1086","15","pre","5","evening","2026-05-12","2026-05-24","2026-05-17T05:21:30.954Z","Mozilla/5.0 (iPhone; CPU iPhone OS 18_7 like Mac OS X) AppleWebKit/605.1.15 (KHTML, like Gecko) Mobile/15E148","361","623","420","","null","<div style=""font-size:60px;"">+</div>","null","fixation","","","","","","","","","","","",""
"html-button-response","49","66374","0.0-2.0-1.23","1086","15","pre","5","evening","2026-05-12","2026-05-24","2026-05-17T05:21:30.954Z","Mozilla/5.0 (iPhone; CPU iPhone OS 18_7 like Mac OS X) AppleWebKit/605.1.15 (KHTML, like Gecko) Mobile/15E148","361","623","420","","1525","<div class=""prompt"" style=""font-size:24px; margin-bottom:20px;"">Which word describes you more?</div>","1","pairing","24","hater","gloomy","NegNeg","2","54","negative","negative","52","gloomy","right","true"
"instructions","50","67456","0.0-3.0","1086","15","pre","5","evening","2026-05-12","2026-05-24","2026-05-17T05:21:30.954Z","Mozilla/5.0 (iPhone; CPU iPhone OS 18_7 like Mac OS X) AppleWebKit/605.1.15 (KHTML, like Gecko) Mobile/15E148","361","623","420","[{""page_index"":0,""viewing_time"":1078}]","1078","","","","","","","","","","","","","","",""
