"trial_type","trial_index","time_elapsed","internal_node_id","PUNS_ID","session_number","session_phase","session_day","session_slot","ema_start_date","ema_post_start_date","experiment_start","browser","screen_width","screen_height","timezone_offset","view_history","rt","stimulus","response","which_experiment_phase","trial_number","left_word","right_word","valence","left_base_rating","right_base_rating","left_valence","right_valence","abs_diff","participant_response","chosen_side","valid_response"
"pavlovia","0","1686","0.0-0.0","1016","19","pre","7","morning","2026-02-11","2026-02-23","2026-02-17T14:14:31.304Z","Mozilla/5.0 (iPhone; CPU iPhone OS 18_7 like Mac OS X) AppleWebKit/605.1.15 (KHTML, like Gecko) Mobile/15E148","358","632","420","","","","","","","","","","","","","","","","",""
"instructions","1","6418","0.0-1.0","1016","19","pre","7","morning","2026-02-11","2026-02-23","2026-02-17T14:14:31.304Z","Mozilla/5.0 (iPhone; CPU iPhone OS 18_7 like Mac OS X) AppleWebKit/605.1.15 (KHTML, like Gecko) Mobile/15E148","358","632","420","[{""page_index"":0,""viewing_time"":864},{""page_index"":1,""viewing_time"":680},{""page_index"":2,""viewing_time"":2170},{""page_index"":3,""viewing_time"":1015}]","4729","","","","","","","","","","","","","","",""
"html-keyboard-response","2","7221","0.0-2.0-0.0","1016","19","pre","7","morning","2026-02-11","2026-02-23","2026-02-17T14:14:31.304Z","Mozilla/5.0 (iPhone; CPU iPhone OS 18_7 like Mac OS X) AppleWebKit/605.1.15 (KHTML, like Gecko) Mobile/15E148","358","632","420","","null","<div style=""font-size:60px;"">+</div>","null","fixation","","","","","","","","","","","",""
"html-button-response","3","8687","0.0-2.0-1.0","1016","19","pre","7","morning","2026-02-11","2026-02-23","2026-02-17T14:14:31.304Z","Mozilla/5.0 (iPhone; CPU iPhone OS 18_7 like Mac OS X) AppleWebKit/605.1.15 (KHTML, like Gecko) Mobile/15E148","358","632","420","","1462","<div class=""prompt"" style=""font-size:24px; margin-bottom:20px;"">Which word describes you more?</div>","1","pairing","1","alone","companion","PosNeg","8","80","negative","positive","72","companion","right","true"
"html-keyboard-response","4","9490","0.0-2.0-0.1","1016","19","pre","7","morning","2026-02-11","2026-02-23","2026-02-17T14:14:31.304Z","Mozilla/5.0 (iPhone; CPU iPhone OS 18_7 like Mac OS X) AppleWebKit/605.1.15 (KHTML, like Gecko) Mobile/15E148","358","632","420","","null","<div style=""font-size:60px;"">+</div>","null","fixation","","","","","","","","","","","",""
"html-button-response","5","10950","0.0-2.0-1.1","1016","19","pre","7","morning","2026-02-11","2026-02-23","2026-02-17T14:14:31.304Z","Mozilla/5.0 (iPhone; CPU iPhone OS 18_7 like Mac OS X) AppleWebKit/605.1.15 (KHTML, like Gecko) Mobile/15E148","358","632","420","","1457","<div class=""prompt"" style=""font-size:24px; margin-bottom:20px;"">Which word describes you more?</div>","0","pairing","2","talented","sophisticated","PosPos","80","7","positive","positive","73","talented","left","true"
"html-keyboard-response","6","11753","0.0-2.0-0.2","1016","19","pre","7","morning","2026-02-11","2026-02-23","2026-02-17T14:14:31.304Z","Mozilla/5.0 (iPhone; CPU iPhone OS 18_7 like Mac OS X) AppleWebKit/605.1.15 (KHTML, like Gecko) Mobile/15E148","358","632","420","","null","<div style=""font-size:60px;"">+</div>","null","fixation","","","","","","","","","","","",""
"html-button-response","7","13269","0.0-2.0-1.2","1016","19","pre","7","morning","2026-02-11","2026-02-23","2026-02-17T14:14:31.304Z","Mozilla/5.0 (iPhone; CPU iPhone OS 18_7 like Mac OS X) AppleWebKit/605.1.15 (KHTML, like Gecko) Mobile/15E148","358","632","420","","1514","<div class=""prompt"" style=""font-size:24px; margin-bottom:20px;"">Which word describes you more?</div>","1","pairing","3","insecure","spirited","PosNeg","49","100","negative","positive","51","spirited","right","true"
"html-keyboard-response","8","14072","0.0-2.0-0.3","1016","19","pre","7","morning","2026-02-11","2026-02-23","2026-02-17T14:14:31.304Z","Mozilla/5.0 (iPhone; CPU iPhone OS 18_7 like Mac OS X) AppleWebKit/605.1.15 (KHTML, like Gecko) Mobile/15E148","358","632","420","","null","<div style=""font-size:60px;"">+</div>","null","fixation","","","","","","","","","","","",""
"html-button-response","9","15684","0.0-2.0-1.3","1016","19","pre","7","morning","2026-02-11","2026-02-23","2026-02-17T14:14:31.304Z","Mozilla/5.0 (iPhone; CPU iPhone OS 18_7 like Mac OS X) AppleWebKit/605.1.15 (KHTML, like Gecko) Mobile/15E148","358","632","420","","1610","<div class=""prompt"" style=""font-size:24px; margin-bottom:20px;"">Which word describes you more?</div>","1","pairing","4","graceful","excited","PosPos","23","90","positive","positive","67","excited","right","true"
"html-keyboard-response","10","16487","0.0-2.0-0.4","1016","19","pre","7","morning","2026-02-11","2026-02-23","2026-02-17T14:14:31.304Z","Mozilla/5.0 (iPhone; CPU iPhone OS 18_7 like Mac OS X) AppleWebKit/605.1.15 (KHTML, like Gecko) Mobile/15E148","358","632","420","","null","<div style=""font-size:60px;"">+</div>","null","fixation","","","","","","","","","","","",""
"html-button-response","11","21141","0.0-2.0-1.4","1016","19","pre","7","morning","2026-02-11","2026-02-23","2026-02-17T14:14:31.304Z","Mozilla/5.0 (iPhone; CPU iPhone OS 18_7 like Mac OS X) AppleWebKit/605.1.15 (KHTML, like Gecko) Mobile/15E148","358","632","420","","4649","<div class=""prompt"" style=""font-size:24px; margin-bottom:20px;"">Which word describes you more?</div>","0","pairing","5","violent","untrustworthy","NegNeg","6","0","negative","negative","6","violent","left","true"
"html-keyboard-response","12","21944","0.0-2.0-0.5","1016","19","pre","7","morning","2026-02-11","2026-02-23","2026-02-17T14:14:31.304Z","Mozilla/5.0 (iPhone; CPU iPhone OS 18_7 like Mac OS X) AppleWebKit/605.1.15 (KHTML, like Gecko) Mobile/15E148","358","632","420","","null","<div style=""font-size:60px;"">+</div>","null","fixation","","","","","","","","","","","",""
"html-button-response","13","23904","0.0-2.0-1.5","1016","19","pre","7","morning","2026-02-11","2026-02-23","2026-02-17T14:14:31.304Z","Mozilla/5.0 (iPhone; CPU iPhone OS 18_7 like Mac OS X) AppleWebKit/605.1.15 (KHTML, like Gecko) Mobile/15E148","358","632","420","","1958","<div class=""prompt"" style=""font-size:24px; margin-bottom:20px;"">Which word describes you more?</div>","1","pairing","6","garbage","hesitant","NegNeg","0","3","negative","negative","3","hesitant","right","true"
"html-keyboard-response","14","24707","0.0-2.0-0.6","1016","19","pre","7","morning","2026-02-11","2026-02-23","2026-02-17T14:14:31.304Z","Mozilla/5.0 (iPhone; CPU iPhone OS 18_7 like Mac OS X) AppleWebKit/605.1.15 (KHTML, like Gecko) Mobile/15E148","358","632","420","","null","<div style=""font-size:60px;"">+</div>","null","fixation","","","","","","","","","","","",""
"html-button-response","15","26537","0.0-2.0-1.6","1016","19","pre","7","morning","2026-02-11","2026-02-23","2026-02-17T14:14:31.304Z","Mozilla/5.0 (iPhone; CPU iPhone OS 18_7 like Mac OS X) AppleWebKit/605.1.15 (KHTML, like Gecko) Mobile/15E148","358","632","420","","1828","<div class=""prompt"" style=""font-size:24px; margin-bottom:20px;"">Which word describes you more?</div>","0","pairing","7","thoughtful","coward","PosNeg","82","51","positive","negative","31","thoughtful","left","true"
"html-keyboard-response","16","27340","0.0-2.0-0.7","1016","19","pre","7","morning","2026-02-11","2026-02-23","2026-02-17T14:14:31.304Z","Mozilla/5.0 (iPhone; CPU iPhone OS 18_7 like Mac OS X) AppleWebKit/605.1.15 (KHTML, like Gecko) Mobile/15E148","358","632","420","","null","<div style=""font-size:60px;"">+</div>","null","fixation","","","","","","","","","","","",""
"html-button-response","17","29237","0.0-2.0-1.7","1016","19","pre","7","morning","2026-02-11","2026-02-23","2026-02-17T14:14:31.304Z","Mozilla/5.0 (iPhone; CPU iPhone OS 18_7 like Mac OS X) AppleWebKit/605.1.15 (KHTML, like Gecko) Mobile/15E148","358","632","420","","1895","<div class=""prompt"" style=""font-size:24px; margin-bottom:20px;"">Which word describes you more?</div>","0","pairing","8","delight","awkward","PosNeg","60","65","positive","negative","5","delight","left","true"
"html-keyboard-response","18","30040","0.0-2.0-0.8","1016","19","pre","7","morning","2026-02-11","2026-02-23","2026-02-17T14:14:31.304Z","Mozilla/5.0 (iPhone; CPU iPhone OS 18_7 like Mac OS X) AppleWebKit/605.1.15 (KHTML, like Gecko) Mobile/15E148","358","632","420","","null","<div style=""font-size:60px;"">+</div>","null","fixation","","","","","","","","","","","",""
"html-button-response","19","33671","0.0-2.0-1.8","1016","19","pre","7","morning","2026-02-11","2026-02-23","2026-02-17T14:14:31.304Z","Mozilla/5.0 (iPhone; CPU iPhone OS 18_7 like Mac OS X) AppleWebKit/605.1.15 (KHTML, like Gecko) Mobile/15E148","358","632","420","","3629","<div class=""prompt"" style=""font-size:24px; margin-bottom:20px;"">Which word describes you more?</div>","1","pairing","9","skilled","achiever","PosPos","74","86","positive","positive","12","achiever","right","true"
"html-keyboard-response","20","34474","0.0-2.0-0.9","1016","19","pre","7","morning","2026-02-11","2026-02-23","2026-02-17T14:14:31.304Z","Mozilla/5.0 (iPhone; CPU iPhone OS 18_7 like Mac OS X) AppleWebKit/605.1.15 (KHTML, like Gecko) Mobile/15E148","358","632","420","","null","<div style=""font-size:60px;"">+</div>","null","fixation","","","","","","","","","","","",""
"html-button-response","21","37986","0.0-2.0-1.9","1016","19","pre","7","morning","2026-02-11","2026-02-23","2026-02-17T14:14:31.304Z","Mozilla/5.0 (iPhone; CPU iPhone OS 18_7 like Mac OS X) AppleWebKit/605.1.15 (KHTML, like Gecko) Mobile/15E148","358","632","420","","3510","<div class=""prompt"" style=""font-size:24px; margin-bottom:20px;"">Which word describes you more?</div>","0","pairing","10","menace","sophisticated","PosNeg","50","7","negative","positive","43","menace","left","true"
"html-keyboard-response","22","38789","0.0-2.0-0.10","1016","19","pre","7","morning","2026-02-11","2026-02-23","2026-02-17T14:14:31.304Z","Mozilla/5.0 (iPhone; CPU iPhone OS 18_7 like Mac OS X) AppleWebKit/605.1.15 (KHTML, like Gecko) Mobile/15E148","358","632","420","","null","<div style=""font-size:60px;"">+</div>","null","fixation","","","","","","","","","","","",""
"html-button-response","23","41271","0.0-2.0-1.10","1016","19","pre","7","morning","2026-02-11","2026-02-23","2026-02-17T14:14:31.304Z","Mozilla/5.0 (iPhone; CPU iPhone OS 18_7 like Mac OS X) AppleWebKit/605.1.15 (KHTML, like Gecko) Mobile/15E148","358","632","420","","2480","<div class=""prompt"" style=""font-size:24px; margin-bottom:20px;"">Which word describes you more?</div>","1","pairing","11","gloomy","irritating","NegNeg","0","71","negative","negative","71","irritating","right","true"
"html-keyboard-response","24","42074","0.0-2.0-0.11","1016","19","pre","7","morning","2026-02-11","2026-02-23","2026-02-17T14:14:31.304Z","Mozilla/5.0 (iPhone; CPU iPhone OS 18_7 like Mac OS X) AppleWebKit/605.1.15 (KHTML, like Gecko) Mobile/15E148","358","632","420","","null","<div style=""font-size:60px;"">+</div>","null","fixation","","","","","","","","","","","",""
"html-button-response","25","43969","0.0-2.0-1.11","1016","19","pre","7","morning","2026-02-11","2026-02-23","2026-02-17T14:14:31.304Z","Mozilla/5.0 (iPhone; CPU iPhone OS 18_7 like Mac OS X) AppleWebKit/605.1.15 (KHTML, like Gecko) Mobile/15E148","358","632","420","","1891","<div class=""prompt"" style=""font-size:24px; margin-bottom:20px;"">Which word describes you more?</div>","1","pairing","12","problematic","blissful","PosNeg","30","50","negative","positive","20","blissful","right","true"
"html-keyboard-response","26","44771","0.0-2.0-0.12","1016","19","pre","7","morning","2026-02-11","2026-02-23","2026-02-17T14:14:31.304Z","Mozilla/5.0 (iPhone; CPU iPhone OS 18_7 like Mac OS X) AppleWebKit/605.1.15 (KHTML, like Gecko) Mobile/15E148","358","632","420","","null","<div style=""font-size:60px;"">+</div>","null","fixation","","","","","","","","","","","",""
"html-button-response","27","47188","0.0-2.0-1.12","1016","19","pre","7","morning","2026-02-11","2026-02-23","2026-02-17T14:14:31.304Z","Mozilla/5.0 (iPhone; CPU iPhone OS 18_7 like Mac OS X) AppleWebKit/605.1.15 (KHTML, like Gecko) Mobile/15E148","358","632","420","","2414","<div class=""prompt"" style=""font-size:24px; margin-bottom:20px;"">Which word describes you more?</div>","0","pairing","13","gentle","insecure","PosNeg","9","49","positive","negative","40","gentle","left","true"
"html-keyboard-response","28","47990","0.0-2.0-0.13","1016","19","pre","7","morning","2026-02-11","2026-02-23","2026-02-17T14:14:31.304Z","Mozilla/5.0 (iPhone; CPU iPhone OS 18_7 like Mac OS X) AppleWebKit/605.1.15 (KHTML, like Gecko) Mobile/15E148","358","632","420","","null","<div style=""font-size:60px;"">+</div>","null","fixation","","","","","","","","","","","",""
"html-button-response","29","49770","0.0-2.0-1.13","1016","19","pre","7","morning","2026-02-11","2026-02-23","2026-02-17T14:14:31.304Z","Mozilla/5.0 (iPhone; CPU iPhone OS 18_7 like Mac OS X) AppleWebKit/605.1.15 (KHTML, like Gecko) Mobile/15E148","358","632","420","","1777","<div class=""prompt"" style=""font-size:24px; margin-bottom:20px;"">Which word describes you more?</div>","0","pairing","14","goodwilled","flawless","PosPos","85","34","positive","positive","51","goodwilled","left","true"
"html-keyboard-response","30","50572","0.0-2.0-0.14","1016","19","pre","7","morning","2026-02-11","2026-02-23","2026-02-17T14:14:31.304Z","Mozilla/5.0 (iPhone; CPU iPhone OS 18_7 like Mac OS X) AppleWebKit/605.1.15 (KHTML, like Gecko) Mobile/15E148","358","632","420","","null","<div style=""font-size:60px;"">+</div>","null","fixation","","","","","","","","","","","",""
"html-button-response","31","52036","0.0-2.0-1.14","1016","19","pre","7","morning","2026-02-11","2026-02-23","2026-02-17T14:14:31.304Z","Mozilla/5.0 (iPhone; CPU iPhone OS 18_7 like Mac OS X) AppleWebKit/605.1.15 (KHTML, like Gecko) Mobile/15E148","358","632","420","","1462","<div class=""prompt"" style=""font-size:24px; margin-bottom:20px;"">Which word describes you more?</div>","1","pairing","15","champion","energetic","PosPos","59","97","positive","positive","38","energetic","right","true"
"html-keyboard-response","32","52839","0.0-2.0-0.15","1016","19","pre","7","morning","2026-02-11","2026-02-23","2026-02-17T14:14:31.304Z","Mozilla/5.0 (iPhone; CPU iPhone OS 18_7 like Mac OS X) AppleWebKit/605.1.15 (KHTML, like Gecko) Mobile/15E148","358","632","420","","null","<div style=""font-size:60px;"">+</div>","null","fixation","","","","","","","","","","","",""
"html-button-response","33","54335","0.0-2.0-1.15","1016","19","pre","7","morning","2026-02-11","2026-02-23","2026-02-17T14:14:31.304Z","Mozilla/5.0 (iPhone; CPU iPhone OS 18_7 like Mac OS X) AppleWebKit/605.1.15 (KHTML, like Gecko) Mobile/15E148","358","632","420","","1494","<div class=""prompt"" style=""font-size:24px; margin-bottom:20px;"">Which word describes you more?</div>","0","pairing","16","humorous","awful","PosNeg","67","5","positive","negative","62","humorous","left","true"
"html-keyboard-response","34","55138","0.0-2.0-0.16","1016","19","pre","7","morning","2026-02-11","2026-02-23","2026-02-17T14:14:31.304Z","Mozilla/5.0 (iPhone; CPU iPhone OS 18_7 like Mac OS X) AppleWebKit/605.1.15 (KHTML, like Gecko) Mobile/15E148","358","632","420","","null","<div style=""font-size:60px;"">+</div>","null","fixation","","","","","","","","","","","",""
"html-button-response","35","56888","0.0-2.0-1.16","1016","19","pre","7","morning","2026-02-11","2026-02-23","2026-02-17T14:14:31.304Z","Mozilla/5.0 (iPhone; CPU iPhone OS 18_7 like Mac OS X) AppleWebKit/605.1.15 (KHTML, like Gecko) Mobile/15E148","358","632","420","","1748","<div class=""prompt"" style=""font-size:24px; margin-bottom:20px;"">Which word describes you more?</div>","1","pairing","17","repulsive","energetic","PosNeg","0","97","negative","positive","97","energetic","right","true"
"html-keyboard-response","36","57691","0.0-2.0-0.17","1016","19","pre","7","morning","2026-02-11","2026-02-23","2026-02-17T14:14:31.304Z","Mozilla/5.0 (iPhone; CPU iPhone OS 18_7 like Mac OS X) AppleWebKit/605.1.15 (KHTML, like Gecko) Mobile/15E148","358","632","420","","null","<div style=""font-size:60px;"">+</div>","null","fixation","","","","","","","","","","","",""
"html-button-response","37","59802","0.0-2.0-1.17","1016","19","pre","7","morning","2026-02-11","2026-02-23","2026-02-17T14:14:31.304Z","Mozilla/5.0 (iPhone; CPU iPhone OS 18_7 like Mac OS X) AppleWebKit/605.1.15 (KHTML, like Gecko) Mobile/15E148","358","632","420","","2109","<div class=""prompt"" style=""font-size:24px; margin-bottom:20px;"">Which word describes you more?</div>","1","pairing","18","regretful","awkward","NegNeg","6","65","negative","negative","59","awkward","right","true"
"html-keyboard-response","38","60605","0.0-2.0-0.18","1016","19","pre","7","morning","2026-02-11","2026-02-23","2026-02-17T14:14:31.304Z","Mozilla/5.0 (iPhone; CPU iPhone OS 18_7 like Mac OS X) AppleWebKit/605.1.15 (KHTML, like Gecko) Mobile/15E148","358","632","420","","null","<div style=""font-size:60px;"">+</div>","null","fixation","","","","","","","","","","","",""
"html-button-response","39","62252","0.0-2.0-1.18","1016","19","pre","7","morning","2026-02-11","2026-02-23","2026-02-17T14:14:31.304Z","Mozilla/5.0 (iPhone; CPU iPhone OS 18_7 like Mac OS X) AppleWebKit/605.1.15 (KHTML, like Gecko) Mobile/15E148","358","632","420","","1645","<div class=""prompt"" style=""font-size:24px; margin-bottom:20px;"">Which word describes you more?</div>","0","pairing","19","irritating","dull","NegNeg","71","0","negative","negative","71","irritating","left","true"
"html-keyboard-response","40","63055","0.0-2.0-0.19","1016","19","pre","7","morning","2026-02-11","2026-02-23","2026-02-17T14:14:31.304Z","Mozilla/5.0 (iPhone; CPU iPhone OS 18_7 like Mac OS X) AppleWebKit/605.1.15 (KHTML, like Gecko) Mobile/15E148","358","632","420","","null","<div style=""font-size:60px;"">+</div>","null","fixation","","","","","","","","","","","",""
"html-button-response","41","66921","0.0-2.0-1.19","1016","19","pre","7","morning","2026-02-11","2026-02-23","2026-02-17T14:14:31.304Z","Mozilla/5.0 (iPhone; CPU iPhone OS 18_7 like Mac OS X) AppleWebKit/605.1.15 (KHTML, like Gecko) Mobile/15E148","358","632","420","","3864","<div class=""prompt"" style=""font-size:24px; margin-bottom:20px;"">Which word describes you more?</div>","0","pairing","20","irritating","charming","PosNeg","71","41","negative","positive","30","irritating","left","true"
"html-keyboard-response","42","67724","0.0-2.0-0.20","1016","19","pre","7","morning","2026-02-11","2026-02-23","2026-02-17T14:14:31.304Z","Mozilla/5.0 (iPhone; CPU iPhone OS 18_7 like Mac OS X) AppleWebKit/605.1.15 (KHTML, like Gecko) Mobile/15E148","358","632","420","","null","<div style=""font-size:60px;"">+</div>","null","fixation","","","","","","","","","","","",""
"html-button-response","43","71186","0.0-2.0-1.20","1016","19","pre","7","morning","2026-02-11","2026-02-23","2026-02-17T14:14:31.304Z","Mozilla/5.0 (iPhone; CPU iPhone OS 18_7 like Mac OS X) AppleWebKit/605.1.15 (KHTML, like Gecko) Mobile/15E148","358","632","420","","3461","<div class=""prompt"" style=""font-size:24px; margin-bottom:20px;"">Which word describes you more?</div>","0","pairing","21","fraud","malicious","NegNeg","49","4","negative","negative","45","fraud","left","true"
"html-keyboard-response","44","71988","0.0-2.0-0.21","1016","19","pre","7","morning","2026-02-11","2026-02-23","2026-02-17T14:14:31.304Z","Mozilla/5.0 (iPhone; CPU iPhone OS 18_7 like Mac OS X) AppleWebKit/605.1.15 (KHTML, like Gecko) Mobile/15E148","358","632","420","","null","<div style=""font-size:60px;"">+</div>","null","fixation","","","","","","","","","","","",""
"html-button-response","45","74369","0.0-2.0-1.21","1016","19","pre","7","morning","2026-02-11","2026-02-23","2026-02-17T14:14:31.304Z","Mozilla/5.0 (iPhone; CPU iPhone OS 18_7 like Mac OS X) AppleWebKit/605.1.15 (KHTML, like Gecko) Mobile/15E148","358","632","420","","2379","<div class=""prompt"" style=""font-size:24px; margin-bottom:20px;"">Which word describes you more?</div>","0","pairing","22","entertaining","irresponsible","PosNeg","66","0","positive","negative","66","entertaining","left","true"
"html-keyboard-response","46","75172","0.0-2.0-0.22","1016","19","pre","7","morning","2026-02-11","2026-02-23","2026-02-17T14:14:31.304Z","Mozilla/5.0 (iPhone; CPU iPhone OS 18_7 like Mac OS X) AppleWebKit/605.1.15 (KHTML, like Gecko) Mobile/15E148","358","632","420","","null","<div style=""font-size:60px;"">+</div>","null","fixation","","","","","","","","","","","",""
"html-button-response","47","80175","0.0-2.0-1.22","1016","19","pre","7","morning","2026-02-11","2026-02-23","2026-02-17T14:14:31.304Z","Mozilla/5.0 (iPhone; CPU iPhone OS 18_7 like Mac OS X) AppleWebKit/605.1.15 (KHTML, like Gecko) Mobile/15E148","358","632","420","","null","<div class=""prompt"" style=""font-size:24px; margin-bottom:20px;"">Which word describes you more?</div>","null","pairing","23","reliable","committed","PosPos","86","78","positive","positive","8","null","null","false"
"html-keyboard-response","48","80978","0.0-2.0-0.23","1016","19","pre","7","morning","2026-02-11","2026-02-23","2026-02-17T14:14:31.304Z","Mozilla/5.0 (iPhone; CPU iPhone OS 18_7 like Mac OS X) AppleWebKit/605.1.15 (KHTML, like Gecko) Mobile/15E148","358","632","420","","null","<div style=""font-size:60px;"">+</div>","null","fixation","","","","","","","","","","","",""
"html-button-response","49","83535","0.0-2.0-1.23","1016","19","pre","7","morning","2026-02-11","2026-02-23","2026-02-17T14:14:31.304Z","Mozilla/5.0 (iPhone; CPU iPhone OS 18_7 like Mac OS X) AppleWebKit/605.1.15 (KHTML, like Gecko) Mobile/15E148","358","632","420","","2555","<div class=""prompt"" style=""font-size:24px; margin-bottom:20px;"">Which word describes you more?</div>","0","pairing","24","excited","distressed","PosNeg","90","13","positive","negative","77","excited","left","true"
"instructions","50","84736","0.0-3.0","1016","19","pre","7","morning","2026-02-11","2026-02-23","2026-02-17T14:14:31.304Z","Mozilla/5.0 (iPhone; CPU iPhone OS 18_7 like Mac OS X) AppleWebKit/605.1.15 (KHTML, like Gecko) Mobile/15E148","358","632","420","[{""page_index"":0,""viewing_time"":1199}]","1199","","","","","","","","","","","","","","",""
