"trial_type","trial_index","time_elapsed","internal_node_id","PUNS_ID","session_number","session_phase","session_day","session_slot","ema_start_date","ema_post_start_date","experiment_start","browser","screen_width","screen_height","timezone_offset","view_history","rt","stimulus","response","which_experiment_phase","trial_number","left_word","right_word","valence","left_base_rating","right_base_rating","left_valence","right_valence","abs_diff","participant_response","chosen_side","valid_response"
"pavlovia","0","2342","0.0-0.0","1017","22","pre","8","morning","2026-02-16","2026-02-28","2026-02-23T15:09:36.362Z","Mozilla/5.0 (iPhone; CPU iPhone OS 18_7 like Mac OS X) AppleWebKit/605.1.15 (KHTML, like Gecko) Mobile/15E148","370","644","480","","","","","","","","","","","","","","","","",""
"instructions","1","5679","0.0-1.0","1017","22","pre","8","morning","2026-02-16","2026-02-28","2026-02-23T15:09:36.362Z","Mozilla/5.0 (iPhone; CPU iPhone OS 18_7 like Mac OS X) AppleWebKit/605.1.15 (KHTML, like Gecko) Mobile/15E148","370","644","480","[{""page_index"":0,""viewing_time"":995},{""page_index"":1,""viewing_time"":622},{""page_index"":2,""viewing_time"":884},{""page_index"":3,""viewing_time"":833}]","3334","","","","","","","","","","","","","","",""
"html-keyboard-response","2","6482","0.0-2.0-0.0","1017","22","pre","8","morning","2026-02-16","2026-02-28","2026-02-23T15:09:36.362Z","Mozilla/5.0 (iPhone; CPU iPhone OS 18_7 like Mac OS X) AppleWebKit/605.1.15 (KHTML, like Gecko) Mobile/15E148","370","644","480","","null","<div style=""font-size:60px;"">+</div>","null","fixation","","","","","","","","","","","",""
"html-button-response","3","8231","0.0-2.0-1.0","1017","22","pre","8","morning","2026-02-16","2026-02-28","2026-02-23T15:09:36.362Z","Mozilla/5.0 (iPhone; CPU iPhone OS 18_7 like Mac OS X) AppleWebKit/605.1.15 (KHTML, like Gecko) Mobile/15E148","370","644","480","","1745","<div class=""prompt"" style=""font-size:24px; margin-bottom:20px;"">Which word describes you more?</div>","0","pairing","1","awkward","boring","NegNeg","49","5","negative","negative","44","awkward","left","true"
"html-keyboard-response","4","9033","0.0-2.0-0.1","1017","22","pre","8","morning","2026-02-16","2026-02-28","2026-02-23T15:09:36.362Z","Mozilla/5.0 (iPhone; CPU iPhone OS 18_7 like Mac OS X) AppleWebKit/605.1.15 (KHTML, like Gecko) Mobile/15E148","370","644","480","","null","<div style=""font-size:60px;"">+</div>","null","fixation","","","","","","","","","","","",""
"html-button-response","5","10688","0.0-2.0-1.1","1017","22","pre","8","morning","2026-02-16","2026-02-28","2026-02-23T15:09:36.362Z","Mozilla/5.0 (iPhone; CPU iPhone OS 18_7 like Mac OS X) AppleWebKit/605.1.15 (KHTML, like Gecko) Mobile/15E148","370","644","480","","1651","<div class=""prompt"" style=""font-size:24px; margin-bottom:20px;"">Which word describes you more?</div>","1","pairing","2","sloppy","spirited","PosNeg","2","49","negative","positive","47","spirited","right","true"
"html-keyboard-response","6","11490","0.0-2.0-0.2","1017","22","pre","8","morning","2026-02-16","2026-02-28","2026-02-23T15:09:36.362Z","Mozilla/5.0 (iPhone; CPU iPhone OS 18_7 like Mac OS X) AppleWebKit/605.1.15 (KHTML, like Gecko) Mobile/15E148","370","644","480","","null","<div style=""font-size:60px;"">+</div>","null","fixation","","","","","","","","","","","",""
"html-button-response","7","13255","0.0-2.0-1.2","1017","22","pre","8","morning","2026-02-16","2026-02-28","2026-02-23T15:09:36.362Z","Mozilla/5.0 (iPhone; CPU iPhone OS 18_7 like Mac OS X) AppleWebKit/605.1.15 (KHTML, like Gecko) Mobile/15E148","370","644","480","","1764","<div class=""prompt"" style=""font-size:24px; margin-bottom:20px;"">Which word describes you more?</div>","1","pairing","3","uninvited","hater","NegNeg","9","14","negative","negative","5","hater","right","true"
"html-keyboard-response","8","14057","0.0-2.0-0.3","1017","22","pre","8","morning","2026-02-16","2026-02-28","2026-02-23T15:09:36.362Z","Mozilla/5.0 (iPhone; CPU iPhone OS 18_7 like Mac OS X) AppleWebKit/605.1.15 (KHTML, like Gecko) Mobile/15E148","370","644","480","","null","<div style=""font-size:60px;"">+</div>","null","fixation","","","","","","","","","","","",""
"html-button-response","9","15731","0.0-2.0-1.3","1017","22","pre","8","morning","2026-02-16","2026-02-28","2026-02-23T15:09:36.362Z","Mozilla/5.0 (iPhone; CPU iPhone OS 18_7 like Mac OS X) AppleWebKit/605.1.15 (KHTML, like Gecko) Mobile/15E148","370","644","480","","1672","<div class=""prompt"" style=""font-size:24px; margin-bottom:20px;"">Which word describes you more?</div>","1","pairing","4","rude","awkward","NegNeg","8","49","negative","negative","41","awkward","right","true"
"html-keyboard-response","10","16533","0.0-2.0-0.4","1017","22","pre","8","morning","2026-02-16","2026-02-28","2026-02-23T15:09:36.362Z","Mozilla/5.0 (iPhone; CPU iPhone OS 18_7 like Mac OS X) AppleWebKit/605.1.15 (KHTML, like Gecko) Mobile/15E148","370","644","480","","null","<div style=""font-size:60px;"">+</div>","null","fixation","","","","","","","","","","","",""
"html-button-response","11","18155","0.0-2.0-1.4","1017","22","pre","8","morning","2026-02-16","2026-02-28","2026-02-23T15:09:36.362Z","Mozilla/5.0 (iPhone; CPU iPhone OS 18_7 like Mac OS X) AppleWebKit/605.1.15 (KHTML, like Gecko) Mobile/15E148","370","644","480","","1621","<div class=""prompt"" style=""font-size:24px; margin-bottom:20px;"">Which word describes you more?</div>","0","pairing","5","pleased","awful","PosNeg","49","6","positive","negative","43","pleased","left","true"
"html-keyboard-response","12","18958","0.0-2.0-0.5","1017","22","pre","8","morning","2026-02-16","2026-02-28","2026-02-23T15:09:36.362Z","Mozilla/5.0 (iPhone; CPU iPhone OS 18_7 like Mac OS X) AppleWebKit/605.1.15 (KHTML, like Gecko) Mobile/15E148","370","644","480","","null","<div style=""font-size:60px;"">+</div>","null","fixation","","","","","","","","","","","",""
"html-button-response","13","20158","0.0-2.0-1.5","1017","22","pre","8","morning","2026-02-16","2026-02-28","2026-02-23T15:09:36.362Z","Mozilla/5.0 (iPhone; CPU iPhone OS 18_7 like Mac OS X) AppleWebKit/605.1.15 (KHTML, like Gecko) Mobile/15E148","370","644","480","","1199","<div class=""prompt"" style=""font-size:24px; margin-bottom:20px;"">Which word describes you more?</div>","1","pairing","6","sadistic","humorous","PosNeg","2","76","negative","positive","74","humorous","right","true"
"html-keyboard-response","14","20961","0.0-2.0-0.6","1017","22","pre","8","morning","2026-02-16","2026-02-28","2026-02-23T15:09:36.362Z","Mozilla/5.0 (iPhone; CPU iPhone OS 18_7 like Mac OS X) AppleWebKit/605.1.15 (KHTML, like Gecko) Mobile/15E148","370","644","480","","null","<div style=""font-size:60px;"">+</div>","null","fixation","","","","","","","","","","","",""
"html-button-response","15","22772","0.0-2.0-1.6","1017","22","pre","8","morning","2026-02-16","2026-02-28","2026-02-23T15:09:36.362Z","Mozilla/5.0 (iPhone; CPU iPhone OS 18_7 like Mac OS X) AppleWebKit/605.1.15 (KHTML, like Gecko) Mobile/15E148","370","644","480","","1809","<div class=""prompt"" style=""font-size:24px; margin-bottom:20px;"">Which word describes you more?</div>","0","pairing","7","selfish","attractive","PosNeg","27","51","negative","positive","24","selfish","left","true"
"html-keyboard-response","16","23574","0.0-2.0-0.7","1017","22","pre","8","morning","2026-02-16","2026-02-28","2026-02-23T15:09:36.362Z","Mozilla/5.0 (iPhone; CPU iPhone OS 18_7 like Mac OS X) AppleWebKit/605.1.15 (KHTML, like Gecko) Mobile/15E148","370","644","480","","null","<div style=""font-size:60px;"">+</div>","null","fixation","","","","","","","","","","","",""
"html-button-response","17","25105","0.0-2.0-1.7","1017","22","pre","8","morning","2026-02-16","2026-02-28","2026-02-23T15:09:36.362Z","Mozilla/5.0 (iPhone; CPU iPhone OS 18_7 like Mac OS X) AppleWebKit/605.1.15 (KHTML, like Gecko) Mobile/15E148","370","644","480","","1530","<div class=""prompt"" style=""font-size:24px; margin-bottom:20px;"">Which word describes you more?</div>","1","pairing","8","stingy","committed","PosNeg","27","100","negative","positive","73","committed","right","true"
"html-keyboard-response","18","25907","0.0-2.0-0.8","1017","22","pre","8","morning","2026-02-16","2026-02-28","2026-02-23T15:09:36.362Z","Mozilla/5.0 (iPhone; CPU iPhone OS 18_7 like Mac OS X) AppleWebKit/605.1.15 (KHTML, like Gecko) Mobile/15E148","370","644","480","","null","<div style=""font-size:60px;"">+</div>","null","fixation","","","","","","","","","","","",""
"html-button-response","19","27972","0.0-2.0-1.8","1017","22","pre","8","morning","2026-02-16","2026-02-28","2026-02-23T15:09:36.362Z","Mozilla/5.0 (iPhone; CPU iPhone OS 18_7 like Mac OS X) AppleWebKit/605.1.15 (KHTML, like Gecko) Mobile/15E148","370","644","480","","2064","<div class=""prompt"" style=""font-size:24px; margin-bottom:20px;"">Which word describes you more?</div>","1","pairing","9","incompetent","prick","NegNeg","0","2","negative","negative","2","prick","right","true"
"html-keyboard-response","20","28774","0.0-2.0-0.9","1017","22","pre","8","morning","2026-02-16","2026-02-28","2026-02-23T15:09:36.362Z","Mozilla/5.0 (iPhone; CPU iPhone OS 18_7 like Mac OS X) AppleWebKit/605.1.15 (KHTML, like Gecko) Mobile/15E148","370","644","480","","null","<div style=""font-size:60px;"">+</div>","null","fixation","","","","","","","","","","","",""
"html-button-response","21","30630","0.0-2.0-1.9","1017","22","pre","8","morning","2026-02-16","2026-02-28","2026-02-23T15:09:36.362Z","Mozilla/5.0 (iPhone; CPU iPhone OS 18_7 like Mac OS X) AppleWebKit/605.1.15 (KHTML, like Gecko) Mobile/15E148","370","644","480","","1855","<div class=""prompt"" style=""font-size:24px; margin-bottom:20px;"">Which word describes you more?</div>","1","pairing","10","virtuous","thoughtful","PosPos","61","100","positive","positive","39","thoughtful","right","true"
"html-keyboard-response","22","31432","0.0-2.0-0.10","1017","22","pre","8","morning","2026-02-16","2026-02-28","2026-02-23T15:09:36.362Z","Mozilla/5.0 (iPhone; CPU iPhone OS 18_7 like Mac OS X) AppleWebKit/605.1.15 (KHTML, like Gecko) Mobile/15E148","370","644","480","","null","<div style=""font-size:60px;"">+</div>","null","fixation","","","","","","","","","","","",""
"html-button-response","23","33123","0.0-2.0-1.10","1017","22","pre","8","morning","2026-02-16","2026-02-28","2026-02-23T15:09:36.362Z","Mozilla/5.0 (iPhone; CPU iPhone OS 18_7 like Mac OS X) AppleWebKit/605.1.15 (KHTML, like Gecko) Mobile/15E148","370","644","480","","1689","<div class=""prompt"" style=""font-size:24px; margin-bottom:20px;"">Which word describes you more?</div>","0","pairing","11","bitter","menace","NegNeg","0","0","negative","negative","0","bitter","left","true"
"html-keyboard-response","24","33925","0.0-2.0-0.11","1017","22","pre","8","morning","2026-02-16","2026-02-28","2026-02-23T15:09:36.362Z","Mozilla/5.0 (iPhone; CPU iPhone OS 18_7 like Mac OS X) AppleWebKit/605.1.15 (KHTML, like Gecko) Mobile/15E148","370","644","480","","null","<div style=""font-size:60px;"">+</div>","null","fixation","","","","","","","","","","","",""
"html-button-response","25","35572","0.0-2.0-1.11","1017","22","pre","8","morning","2026-02-16","2026-02-28","2026-02-23T15:09:36.362Z","Mozilla/5.0 (iPhone; CPU iPhone OS 18_7 like Mac OS X) AppleWebKit/605.1.15 (KHTML, like Gecko) Mobile/15E148","370","644","480","","1645","<div class=""prompt"" style=""font-size:24px; margin-bottom:20px;"">Which word describes you more?</div>","1","pairing","12","coward","blissful","PosNeg","49","7","negative","positive","42","blissful","right","true"
"html-keyboard-response","26","36374","0.0-2.0-0.12","1017","22","pre","8","morning","2026-02-16","2026-02-28","2026-02-23T15:09:36.362Z","Mozilla/5.0 (iPhone; CPU iPhone OS 18_7 like Mac OS X) AppleWebKit/605.1.15 (KHTML, like Gecko) Mobile/15E148","370","644","480","","null","<div style=""font-size:60px;"">+</div>","null","fixation","","","","","","","","","","","",""
"html-button-response","27","37623","0.0-2.0-1.12","1017","22","pre","8","morning","2026-02-16","2026-02-28","2026-02-23T15:09:36.362Z","Mozilla/5.0 (iPhone; CPU iPhone OS 18_7 like Mac OS X) AppleWebKit/605.1.15 (KHTML, like Gecko) Mobile/15E148","370","644","480","","1246","<div class=""prompt"" style=""font-size:24px; margin-bottom:20px;"">Which word describes you more?</div>","1","pairing","13","burden","flawless","PosNeg","6","0","negative","positive","6","flawless","right","true"
"html-keyboard-response","28","38425","0.0-2.0-0.13","1017","22","pre","8","morning","2026-02-16","2026-02-28","2026-02-23T15:09:36.362Z","Mozilla/5.0 (iPhone; CPU iPhone OS 18_7 like Mac OS X) AppleWebKit/605.1.15 (KHTML, like Gecko) Mobile/15E148","370","644","480","","null","<div style=""font-size:60px;"">+</div>","null","fixation","","","","","","","","","","","",""
"html-button-response","29","40565","0.0-2.0-1.13","1017","22","pre","8","morning","2026-02-16","2026-02-28","2026-02-23T15:09:36.362Z","Mozilla/5.0 (iPhone; CPU iPhone OS 18_7 like Mac OS X) AppleWebKit/605.1.15 (KHTML, like Gecko) Mobile/15E148","370","644","480","","2138","<div class=""prompt"" style=""font-size:24px; margin-bottom:20px;"">Which word describes you more?</div>","1","pairing","14","champion","patient","PosPos","35","49","positive","positive","14","patient","right","true"
"html-keyboard-response","30","41367","0.0-2.0-0.14","1017","22","pre","8","morning","2026-02-16","2026-02-28","2026-02-23T15:09:36.362Z","Mozilla/5.0 (iPhone; CPU iPhone OS 18_7 like Mac OS X) AppleWebKit/605.1.15 (KHTML, like Gecko) Mobile/15E148","370","644","480","","null","<div style=""font-size:60px;"">+</div>","null","fixation","","","","","","","","","","","",""
"html-button-response","31","42507","0.0-2.0-1.14","1017","22","pre","8","morning","2026-02-16","2026-02-28","2026-02-23T15:09:36.362Z","Mozilla/5.0 (iPhone; CPU iPhone OS 18_7 like Mac OS X) AppleWebKit/605.1.15 (KHTML, like Gecko) Mobile/15E148","370","644","480","","1138","<div class=""prompt"" style=""font-size:24px; margin-bottom:20px;"">Which word describes you more?</div>","0","pairing","15","friend","tolerant","PosPos","100","79","positive","positive","21","friend","left","true"
"html-keyboard-response","32","43309","0.0-2.0-0.15","1017","22","pre","8","morning","2026-02-16","2026-02-28","2026-02-23T15:09:36.362Z","Mozilla/5.0 (iPhone; CPU iPhone OS 18_7 like Mac OS X) AppleWebKit/605.1.15 (KHTML, like Gecko) Mobile/15E148","370","644","480","","null","<div style=""font-size:60px;"">+</div>","null","fixation","","","","","","","","","","","",""
"html-button-response","33","45007","0.0-2.0-1.15","1017","22","pre","8","morning","2026-02-16","2026-02-28","2026-02-23T15:09:36.362Z","Mozilla/5.0 (iPhone; CPU iPhone OS 18_7 like Mac OS X) AppleWebKit/605.1.15 (KHTML, like Gecko) Mobile/15E148","370","644","480","","1697","<div class=""prompt"" style=""font-size:24px; margin-bottom:20px;"">Which word describes you more?</div>","0","pairing","16","credible","flawless","PosPos","100","0","positive","positive","100","credible","left","true"
"html-keyboard-response","34","45810","0.0-2.0-0.16","1017","22","pre","8","morning","2026-02-16","2026-02-28","2026-02-23T15:09:36.362Z","Mozilla/5.0 (iPhone; CPU iPhone OS 18_7 like Mac OS X) AppleWebKit/605.1.15 (KHTML, like Gecko) Mobile/15E148","370","644","480","","null","<div style=""font-size:60px;"">+</div>","null","fixation","","","","","","","","","","","",""
"html-button-response","35","47016","0.0-2.0-1.16","1017","22","pre","8","morning","2026-02-16","2026-02-28","2026-02-23T15:09:36.362Z","Mozilla/5.0 (iPhone; CPU iPhone OS 18_7 like Mac OS X) AppleWebKit/605.1.15 (KHTML, like Gecko) Mobile/15E148","370","644","480","","1204","<div class=""prompt"" style=""font-size:24px; margin-bottom:20px;"">Which word describes you more?</div>","1","pairing","17","esteemed","awkward","PosNeg","46","49","positive","negative","3","awkward","right","true"
"html-keyboard-response","36","47818","0.0-2.0-0.17","1017","22","pre","8","morning","2026-02-16","2026-02-28","2026-02-23T15:09:36.362Z","Mozilla/5.0 (iPhone; CPU iPhone OS 18_7 like Mac OS X) AppleWebKit/605.1.15 (KHTML, like Gecko) Mobile/15E148","370","644","480","","null","<div style=""font-size:60px;"">+</div>","null","fixation","","","","","","","","","","","",""
"html-button-response","37","50174","0.0-2.0-1.17","1017","22","pre","8","morning","2026-02-16","2026-02-28","2026-02-23T15:09:36.362Z","Mozilla/5.0 (iPhone; CPU iPhone OS 18_7 like Mac OS X) AppleWebKit/605.1.15 (KHTML, like Gecko) Mobile/15E148","370","644","480","","2355","<div class=""prompt"" style=""font-size:24px; margin-bottom:20px;"">Which word describes you more?</div>","0","pairing","18","blissful","distressed","PosNeg","7","45","positive","negative","38","blissful","left","true"
"html-keyboard-response","38","50977","0.0-2.0-0.18","1017","22","pre","8","morning","2026-02-16","2026-02-28","2026-02-23T15:09:36.362Z","Mozilla/5.0 (iPhone; CPU iPhone OS 18_7 like Mac OS X) AppleWebKit/605.1.15 (KHTML, like Gecko) Mobile/15E148","370","644","480","","null","<div style=""font-size:60px;"">+</div>","null","fixation","","","","","","","","","","","",""
"html-button-response","39","52216","0.0-2.0-1.18","1017","22","pre","8","morning","2026-02-16","2026-02-28","2026-02-23T15:09:36.362Z","Mozilla/5.0 (iPhone; CPU iPhone OS 18_7 like Mac OS X) AppleWebKit/605.1.15 (KHTML, like Gecko) Mobile/15E148","370","644","480","","1238","<div class=""prompt"" style=""font-size:24px; margin-bottom:20px;"">Which word describes you more?</div>","0","pairing","19","thoughtful","disastrous","PosNeg","100","0","positive","negative","100","thoughtful","left","true"
"html-keyboard-response","40","53018","0.0-2.0-0.19","1017","22","pre","8","morning","2026-02-16","2026-02-28","2026-02-23T15:09:36.362Z","Mozilla/5.0 (iPhone; CPU iPhone OS 18_7 like Mac OS X) AppleWebKit/605.1.15 (KHTML, like Gecko) Mobile/15E148","370","644","480","","null","<div style=""font-size:60px;"">+</div>","null","fixation","","","","","","","","","","","",""
"html-button-response","41","54308","0.0-2.0-1.19","1017","22","pre","8","morning","2026-02-16","2026-02-28","2026-02-23T15:09:36.362Z","Mozilla/5.0 (iPhone; CPU iPhone OS 18_7 like Mac OS X) AppleWebKit/605.1.15 (KHTML, like Gecko) Mobile/15E148","370","644","480","","1289","<div class=""prompt"" style=""font-size:24px; margin-bottom:20px;"">Which word describes you more?</div>","0","pairing","20","graceful","vermin","PosNeg","16","2","positive","negative","14","graceful","left","true"
"html-keyboard-response","42","55110","0.0-2.0-0.20","1017","22","pre","8","morning","2026-02-16","2026-02-28","2026-02-23T15:09:36.362Z","Mozilla/5.0 (iPhone; CPU iPhone OS 18_7 like Mac OS X) AppleWebKit/605.1.15 (KHTML, like Gecko) Mobile/15E148","370","644","480","","null","<div style=""font-size:60px;"">+</div>","null","fixation","","","","","","","","","","","",""
"html-button-response","43","56375","0.0-2.0-1.20","1017","22","pre","8","morning","2026-02-16","2026-02-28","2026-02-23T15:09:36.362Z","Mozilla/5.0 (iPhone; CPU iPhone OS 18_7 like Mac OS X) AppleWebKit/605.1.15 (KHTML, like Gecko) Mobile/15E148","370","644","480","","1262","<div class=""prompt"" style=""font-size:24px; margin-bottom:20px;"">Which word describes you more?</div>","1","pairing","21","quitter","companion","PosNeg","2","100","negative","positive","98","companion","right","true"
"html-keyboard-response","44","57177","0.0-2.0-0.21","1017","22","pre","8","morning","2026-02-16","2026-02-28","2026-02-23T15:09:36.362Z","Mozilla/5.0 (iPhone; CPU iPhone OS 18_7 like Mac OS X) AppleWebKit/605.1.15 (KHTML, like Gecko) Mobile/15E148","370","644","480","","null","<div style=""font-size:60px;"">+</div>","null","fixation","","","","","","","","","","","",""
"html-button-response","45","58984","0.0-2.0-1.21","1017","22","pre","8","morning","2026-02-16","2026-02-28","2026-02-23T15:09:36.362Z","Mozilla/5.0 (iPhone; CPU iPhone OS 18_7 like Mac OS X) AppleWebKit/605.1.15 (KHTML, like Gecko) Mobile/15E148","370","644","480","","1806","<div class=""prompt"" style=""font-size:24px; margin-bottom:20px;"">Which word describes you more?</div>","1","pairing","22","graceful","committed","PosPos","16","100","positive","positive","84","committed","right","true"
"html-keyboard-response","46","59786","0.0-2.0-0.22","1017","22","pre","8","morning","2026-02-16","2026-02-28","2026-02-23T15:09:36.362Z","Mozilla/5.0 (iPhone; CPU iPhone OS 18_7 like Mac OS X) AppleWebKit/605.1.15 (KHTML, like Gecko) Mobile/15E148","370","644","480","","null","<div style=""font-size:60px;"">+</div>","null","fixation","","","","","","","","","","","",""
"html-button-response","47","61500","0.0-2.0-1.22","1017","22","pre","8","morning","2026-02-16","2026-02-28","2026-02-23T15:09:36.362Z","Mozilla/5.0 (iPhone; CPU iPhone OS 18_7 like Mac OS X) AppleWebKit/605.1.15 (KHTML, like Gecko) Mobile/15E148","370","644","480","","1713","<div class=""prompt"" style=""font-size:24px; margin-bottom:20px;"">Which word describes you more?</div>","1","pairing","23","toxic","traitor","NegNeg","4","1","negative","negative","3","traitor","right","true"
"html-keyboard-response","48","62302","0.0-2.0-0.23","1017","22","pre","8","morning","2026-02-16","2026-02-28","2026-02-23T15:09:36.362Z","Mozilla/5.0 (iPhone; CPU iPhone OS 18_7 like Mac OS X) AppleWebKit/605.1.15 (KHTML, like Gecko) Mobile/15E148","370","644","480","","null","<div style=""font-size:60px;"">+</div>","null","fixation","","","","","","","","","","","",""
"html-button-response","49","63976","0.0-2.0-1.23","1017","22","pre","8","morning","2026-02-16","2026-02-28","2026-02-23T15:09:36.362Z","Mozilla/5.0 (iPhone; CPU iPhone OS 18_7 like Mac OS X) AppleWebKit/605.1.15 (KHTML, like Gecko) Mobile/15E148","370","644","480","","1671","<div class=""prompt"" style=""font-size:24px; margin-bottom:20px;"">Which word describes you more?</div>","0","pairing","24","gentle","graceful","PosPos","72","16","positive","positive","56","gentle","left","true"
"instructions","50","64860","0.0-3.0","1017","22","pre","8","morning","2026-02-16","2026-02-28","2026-02-23T15:09:36.362Z","Mozilla/5.0 (iPhone; CPU iPhone OS 18_7 like Mac OS X) AppleWebKit/605.1.15 (KHTML, like Gecko) Mobile/15E148","370","644","480","[{""page_index"":0,""viewing_time"":881}]","882","","","","","","","","","","","","","","",""
