"trial_type","trial_index","time_elapsed","internal_node_id","PUNS_ID","session_number","session_phase","session_day","session_slot","ema_start_date","ema_post_start_date","experiment_start","browser","screen_width","screen_height","timezone_offset","view_history","rt","stimulus","response","which_experiment_phase","trial_number","left_word","right_word","valence","left_base_rating","right_base_rating","left_valence","right_valence","abs_diff","participant_response","chosen_side","valid_response"
"pavlovia","0","1504","0.0-0.0","1088","17","pre","6","afternoon","2026-04-24","2026-05-07","2026-04-29T20:02:11.599Z","Mozilla/5.0 (iPhone; CPU iPhone OS 18_7 like Mac OS X) AppleWebKit/605.1.15 (KHTML, like Gecko) Mobile/15E148","358","632","240","","","","","","","","","","","","","","","","",""
"instructions","1","4950","0.0-1.0","1088","17","pre","6","afternoon","2026-04-24","2026-05-07","2026-04-29T20:02:11.599Z","Mozilla/5.0 (iPhone; CPU iPhone OS 18_7 like Mac OS X) AppleWebKit/605.1.15 (KHTML, like Gecko) Mobile/15E148","358","632","240","[{""page_index"":0,""viewing_time"":834},{""page_index"":1,""viewing_time"":412},{""page_index"":2,""viewing_time"":1616},{""page_index"":3,""viewing_time"":578}]","3441","","","","","","","","","","","","","","",""
"html-keyboard-response","2","5754","0.0-2.0-0.0","1088","17","pre","6","afternoon","2026-04-24","2026-05-07","2026-04-29T20:02:11.599Z","Mozilla/5.0 (iPhone; CPU iPhone OS 18_7 like Mac OS X) AppleWebKit/605.1.15 (KHTML, like Gecko) Mobile/15E148","358","632","240","","null","<div style=""font-size:60px;"">+</div>","null","fixation","","","","","","","","","","","",""
"html-button-response","3","9257","0.0-2.0-1.0","1088","17","pre","6","afternoon","2026-04-24","2026-05-07","2026-04-29T20:02:11.599Z","Mozilla/5.0 (iPhone; CPU iPhone OS 18_7 like Mac OS X) AppleWebKit/605.1.15 (KHTML, like Gecko) Mobile/15E148","358","632","240","","3496","<div class=""prompt"" style=""font-size:24px; margin-bottom:20px;"">Which word describes you more?</div>","0","pairing","1","admired","tolerant","PosPos","90","20","positive","positive","70","admired","left","true"
"html-keyboard-response","4","10060","0.0-2.0-0.1","1088","17","pre","6","afternoon","2026-04-24","2026-05-07","2026-04-29T20:02:11.599Z","Mozilla/5.0 (iPhone; CPU iPhone OS 18_7 like Mac OS X) AppleWebKit/605.1.15 (KHTML, like Gecko) Mobile/15E148","358","632","240","","null","<div style=""font-size:60px;"">+</div>","null","fixation","","","","","","","","","","","",""
"html-button-response","5","10823","0.0-2.0-1.1","1088","17","pre","6","afternoon","2026-04-24","2026-05-07","2026-04-29T20:02:11.599Z","Mozilla/5.0 (iPhone; CPU iPhone OS 18_7 like Mac OS X) AppleWebKit/605.1.15 (KHTML, like Gecko) Mobile/15E148","358","632","240","","760","<div class=""prompt"" style=""font-size:24px; margin-bottom:20px;"">Which word describes you more?</div>","1","pairing","2","tolerant","idealistic","PosPos","20","84","positive","positive","64","idealistic","right","true"
"html-keyboard-response","6","11626","0.0-2.0-0.2","1088","17","pre","6","afternoon","2026-04-24","2026-05-07","2026-04-29T20:02:11.599Z","Mozilla/5.0 (iPhone; CPU iPhone OS 18_7 like Mac OS X) AppleWebKit/605.1.15 (KHTML, like Gecko) Mobile/15E148","358","632","240","","null","<div style=""font-size:60px;"">+</div>","null","fixation","","","","","","","","","","","",""
"html-button-response","7","12408","0.0-2.0-1.2","1088","17","pre","6","afternoon","2026-04-24","2026-05-07","2026-04-29T20:02:11.599Z","Mozilla/5.0 (iPhone; CPU iPhone OS 18_7 like Mac OS X) AppleWebKit/605.1.15 (KHTML, like Gecko) Mobile/15E148","358","632","240","","778","<div class=""prompt"" style=""font-size:24px; margin-bottom:20px;"">Which word describes you more?</div>","1","pairing","3","distressed","easygoing","PosNeg","86","48","negative","positive","38","easygoing","right","true"
"html-keyboard-response","8","13211","0.0-2.0-0.3","1088","17","pre","6","afternoon","2026-04-24","2026-05-07","2026-04-29T20:02:11.599Z","Mozilla/5.0 (iPhone; CPU iPhone OS 18_7 like Mac OS X) AppleWebKit/605.1.15 (KHTML, like Gecko) Mobile/15E148","358","632","240","","null","<div style=""font-size:60px;"">+</div>","null","fixation","","","","","","","","","","","",""
"html-button-response","9","13909","0.0-2.0-1.3","1088","17","pre","6","afternoon","2026-04-24","2026-05-07","2026-04-29T20:02:11.599Z","Mozilla/5.0 (iPhone; CPU iPhone OS 18_7 like Mac OS X) AppleWebKit/605.1.15 (KHTML, like Gecko) Mobile/15E148","358","632","240","","695","<div class=""prompt"" style=""font-size:24px; margin-bottom:20px;"">Which word describes you more?</div>","1","pairing","4","champion","hesitant","PosNeg","15","84","positive","negative","69","hesitant","right","true"
"html-keyboard-response","10","14712","0.0-2.0-0.4","1088","17","pre","6","afternoon","2026-04-24","2026-05-07","2026-04-29T20:02:11.599Z","Mozilla/5.0 (iPhone; CPU iPhone OS 18_7 like Mac OS X) AppleWebKit/605.1.15 (KHTML, like Gecko) Mobile/15E148","358","632","240","","null","<div style=""font-size:60px;"">+</div>","null","fixation","","","","","","","","","","","",""
"html-button-response","11","15524","0.0-2.0-1.4","1088","17","pre","6","afternoon","2026-04-24","2026-05-07","2026-04-29T20:02:11.599Z","Mozilla/5.0 (iPhone; CPU iPhone OS 18_7 like Mac OS X) AppleWebKit/605.1.15 (KHTML, like Gecko) Mobile/15E148","358","632","240","","810","<div class=""prompt"" style=""font-size:24px; margin-bottom:20px;"">Which word describes you more?</div>","1","pairing","5","asset","legendary","PosPos","100","50","positive","positive","50","legendary","right","true"
"html-keyboard-response","12","16327","0.0-2.0-0.5","1088","17","pre","6","afternoon","2026-04-24","2026-05-07","2026-04-29T20:02:11.599Z","Mozilla/5.0 (iPhone; CPU iPhone OS 18_7 like Mac OS X) AppleWebKit/605.1.15 (KHTML, like Gecko) Mobile/15E148","358","632","240","","null","<div style=""font-size:60px;"">+</div>","null","fixation","","","","","","","","","","","",""
"html-button-response","13","17310","0.0-2.0-1.5","1088","17","pre","6","afternoon","2026-04-24","2026-05-07","2026-04-29T20:02:11.599Z","Mozilla/5.0 (iPhone; CPU iPhone OS 18_7 like Mac OS X) AppleWebKit/605.1.15 (KHTML, like Gecko) Mobile/15E148","358","632","240","","980","<div class=""prompt"" style=""font-size:24px; margin-bottom:20px;"">Which word describes you more?</div>","0","pairing","6","legendary","unwanted","PosNeg","50","23","positive","negative","27","legendary","left","true"
"html-keyboard-response","14","18113","0.0-2.0-0.6","1088","17","pre","6","afternoon","2026-04-24","2026-05-07","2026-04-29T20:02:11.599Z","Mozilla/5.0 (iPhone; CPU iPhone OS 18_7 like Mac OS X) AppleWebKit/605.1.15 (KHTML, like Gecko) Mobile/15E148","358","632","240","","null","<div style=""font-size:60px;"">+</div>","null","fixation","","","","","","","","","","","",""
"html-button-response","15","19527","0.0-2.0-1.6","1088","17","pre","6","afternoon","2026-04-24","2026-05-07","2026-04-29T20:02:11.599Z","Mozilla/5.0 (iPhone; CPU iPhone OS 18_7 like Mac OS X) AppleWebKit/605.1.15 (KHTML, like Gecko) Mobile/15E148","358","632","240","","1411","<div class=""prompt"" style=""font-size:24px; margin-bottom:20px;"">Which word describes you more?</div>","1","pairing","7","garbage","expert","PosNeg","0","7","negative","positive","7","expert","right","true"
"html-keyboard-response","16","20330","0.0-2.0-0.7","1088","17","pre","6","afternoon","2026-04-24","2026-05-07","2026-04-29T20:02:11.599Z","Mozilla/5.0 (iPhone; CPU iPhone OS 18_7 like Mac OS X) AppleWebKit/605.1.15 (KHTML, like Gecko) Mobile/15E148","358","632","240","","null","<div style=""font-size:60px;"">+</div>","null","fixation","","","","","","","","","","","",""
"html-button-response","17","21158","0.0-2.0-1.7","1088","17","pre","6","afternoon","2026-04-24","2026-05-07","2026-04-29T20:02:11.599Z","Mozilla/5.0 (iPhone; CPU iPhone OS 18_7 like Mac OS X) AppleWebKit/605.1.15 (KHTML, like Gecko) Mobile/15E148","358","632","240","","824","<div class=""prompt"" style=""font-size:24px; margin-bottom:20px;"">Which word describes you more?</div>","0","pairing","8","committed","hesitant","PosNeg","71","84","positive","negative","13","committed","left","true"
"html-keyboard-response","18","21961","0.0-2.0-0.8","1088","17","pre","6","afternoon","2026-04-24","2026-05-07","2026-04-29T20:02:11.599Z","Mozilla/5.0 (iPhone; CPU iPhone OS 18_7 like Mac OS X) AppleWebKit/605.1.15 (KHTML, like Gecko) Mobile/15E148","358","632","240","","null","<div style=""font-size:60px;"">+</div>","null","fixation","","","","","","","","","","","",""
"html-button-response","19","22664","0.0-2.0-1.8","1088","17","pre","6","afternoon","2026-04-24","2026-05-07","2026-04-29T20:02:11.599Z","Mozilla/5.0 (iPhone; CPU iPhone OS 18_7 like Mac OS X) AppleWebKit/605.1.15 (KHTML, like Gecko) Mobile/15E148","358","632","240","","701","<div class=""prompt"" style=""font-size:24px; margin-bottom:20px;"">Which word describes you more?</div>","0","pairing","9","seeker","entertaining","PosPos","95","100","positive","positive","5","seeker","left","true"
"html-keyboard-response","20","23467","0.0-2.0-0.9","1088","17","pre","6","afternoon","2026-04-24","2026-05-07","2026-04-29T20:02:11.599Z","Mozilla/5.0 (iPhone; CPU iPhone OS 18_7 like Mac OS X) AppleWebKit/605.1.15 (KHTML, like Gecko) Mobile/15E148","358","632","240","","null","<div style=""font-size:60px;"">+</div>","null","fixation","","","","","","","","","","","",""
"html-button-response","21","24733","0.0-2.0-1.9","1088","17","pre","6","afternoon","2026-04-24","2026-05-07","2026-04-29T20:02:11.599Z","Mozilla/5.0 (iPhone; CPU iPhone OS 18_7 like Mac OS X) AppleWebKit/605.1.15 (KHTML, like Gecko) Mobile/15E148","358","632","240","","1264","<div class=""prompt"" style=""font-size:24px; margin-bottom:20px;"">Which word describes you more?</div>","0","pairing","10","boring","shameful","NegNeg","0","59","negative","negative","59","boring","left","true"
"html-keyboard-response","22","25536","0.0-2.0-0.10","1088","17","pre","6","afternoon","2026-04-24","2026-05-07","2026-04-29T20:02:11.599Z","Mozilla/5.0 (iPhone; CPU iPhone OS 18_7 like Mac OS X) AppleWebKit/605.1.15 (KHTML, like Gecko) Mobile/15E148","358","632","240","","null","<div style=""font-size:60px;"">+</div>","null","fixation","","","","","","","","","","","",""
"html-button-response","23","26930","0.0-2.0-1.10","1088","17","pre","6","afternoon","2026-04-24","2026-05-07","2026-04-29T20:02:11.599Z","Mozilla/5.0 (iPhone; CPU iPhone OS 18_7 like Mac OS X) AppleWebKit/605.1.15 (KHTML, like Gecko) Mobile/15E148","358","632","240","","1392","<div class=""prompt"" style=""font-size:24px; margin-bottom:20px;"">Which word describes you more?</div>","1","pairing","11","disloyal","asset","PosNeg","0","100","negative","positive","100","asset","right","true"
"html-keyboard-response","24","27733","0.0-2.0-0.11","1088","17","pre","6","afternoon","2026-04-24","2026-05-07","2026-04-29T20:02:11.599Z","Mozilla/5.0 (iPhone; CPU iPhone OS 18_7 like Mac OS X) AppleWebKit/605.1.15 (KHTML, like Gecko) Mobile/15E148","358","632","240","","null","<div style=""font-size:60px;"">+</div>","null","fixation","","","","","","","","","","","",""
"html-button-response","25","28401","0.0-2.0-1.11","1088","17","pre","6","afternoon","2026-04-24","2026-05-07","2026-04-29T20:02:11.599Z","Mozilla/5.0 (iPhone; CPU iPhone OS 18_7 like Mac OS X) AppleWebKit/605.1.15 (KHTML, like Gecko) Mobile/15E148","358","632","240","","666","<div class=""prompt"" style=""font-size:24px; margin-bottom:20px;"">Which word describes you more?</div>","1","pairing","12","champion","healthy","PosPos","15","82","positive","positive","67","healthy","right","true"
"html-keyboard-response","26","29204","0.0-2.0-0.12","1088","17","pre","6","afternoon","2026-04-24","2026-05-07","2026-04-29T20:02:11.599Z","Mozilla/5.0 (iPhone; CPU iPhone OS 18_7 like Mac OS X) AppleWebKit/605.1.15 (KHTML, like Gecko) Mobile/15E148","358","632","240","","null","<div style=""font-size:60px;"">+</div>","null","fixation","","","","","","","","","","","",""
"html-button-response","27","29947","0.0-2.0-1.12","1088","17","pre","6","afternoon","2026-04-24","2026-05-07","2026-04-29T20:02:11.599Z","Mozilla/5.0 (iPhone; CPU iPhone OS 18_7 like Mac OS X) AppleWebKit/605.1.15 (KHTML, like Gecko) Mobile/15E148","358","632","240","","741","<div class=""prompt"" style=""font-size:24px; margin-bottom:20px;"">Which word describes you more?</div>","0","pairing","13","hesitant","bully","NegNeg","84","0","negative","negative","84","hesitant","left","true"
"html-keyboard-response","28","30749","0.0-2.0-0.13","1088","17","pre","6","afternoon","2026-04-24","2026-05-07","2026-04-29T20:02:11.599Z","Mozilla/5.0 (iPhone; CPU iPhone OS 18_7 like Mac OS X) AppleWebKit/605.1.15 (KHTML, like Gecko) Mobile/15E148","358","632","240","","null","<div style=""font-size:60px;"">+</div>","null","fixation","","","","","","","","","","","",""
"html-button-response","29","31486","0.0-2.0-1.13","1088","17","pre","6","afternoon","2026-04-24","2026-05-07","2026-04-29T20:02:11.599Z","Mozilla/5.0 (iPhone; CPU iPhone OS 18_7 like Mac OS X) AppleWebKit/605.1.15 (KHTML, like Gecko) Mobile/15E148","358","632","240","","732","<div class=""prompt"" style=""font-size:24px; margin-bottom:20px;"">Which word describes you more?</div>","1","pairing","14","vermin","distressed","NegNeg","0","86","negative","negative","86","distressed","right","true"
"html-keyboard-response","30","32289","0.0-2.0-0.14","1088","17","pre","6","afternoon","2026-04-24","2026-05-07","2026-04-29T20:02:11.599Z","Mozilla/5.0 (iPhone; CPU iPhone OS 18_7 like Mac OS X) AppleWebKit/605.1.15 (KHTML, like Gecko) Mobile/15E148","358","632","240","","null","<div style=""font-size:60px;"">+</div>","null","fixation","","","","","","","","","","","",""
"html-button-response","31","34884","0.0-2.0-1.14","1088","17","pre","6","afternoon","2026-04-24","2026-05-07","2026-04-29T20:02:11.599Z","Mozilla/5.0 (iPhone; CPU iPhone OS 18_7 like Mac OS X) AppleWebKit/605.1.15 (KHTML, like Gecko) Mobile/15E148","358","632","240","","2594","<div class=""prompt"" style=""font-size:24px; margin-bottom:20px;"">Which word describes you more?</div>","1","pairing","15","quitter","empty","NegNeg","48","11","negative","negative","37","empty","right","true"
"html-keyboard-response","32","35687","0.0-2.0-0.15","1088","17","pre","6","afternoon","2026-04-24","2026-05-07","2026-04-29T20:02:11.599Z","Mozilla/5.0 (iPhone; CPU iPhone OS 18_7 like Mac OS X) AppleWebKit/605.1.15 (KHTML, like Gecko) Mobile/15E148","358","632","240","","null","<div style=""font-size:60px;"">+</div>","null","fixation","","","","","","","","","","","",""
"html-button-response","33","37724","0.0-2.0-1.15","1088","17","pre","6","afternoon","2026-04-24","2026-05-07","2026-04-29T20:02:11.599Z","Mozilla/5.0 (iPhone; CPU iPhone OS 18_7 like Mac OS X) AppleWebKit/605.1.15 (KHTML, like Gecko) Mobile/15E148","358","632","240","","2035","<div class=""prompt"" style=""font-size:24px; margin-bottom:20px;"">Which word describes you more?</div>","0","pairing","16","fool","degenerate","NegNeg","4","0","negative","negative","4","fool","left","true"
"html-keyboard-response","34","38527","0.0-2.0-0.16","1088","17","pre","6","afternoon","2026-04-24","2026-05-07","2026-04-29T20:02:11.599Z","Mozilla/5.0 (iPhone; CPU iPhone OS 18_7 like Mac OS X) AppleWebKit/605.1.15 (KHTML, like Gecko) Mobile/15E148","358","632","240","","null","<div style=""font-size:60px;"">+</div>","null","fixation","","","","","","","","","","","",""
"html-button-response","35","42181","0.0-2.0-1.16","1088","17","pre","6","afternoon","2026-04-24","2026-05-07","2026-04-29T20:02:11.599Z","Mozilla/5.0 (iPhone; CPU iPhone OS 18_7 like Mac OS X) AppleWebKit/605.1.15 (KHTML, like Gecko) Mobile/15E148","358","632","240","","3652","<div class=""prompt"" style=""font-size:24px; margin-bottom:20px;"">Which word describes you more?</div>","1","pairing","17","worthless","liar","NegNeg","0","5","negative","negative","5","liar","right","true"
"html-keyboard-response","36","42984","0.0-2.0-0.17","1088","17","pre","6","afternoon","2026-04-24","2026-05-07","2026-04-29T20:02:11.599Z","Mozilla/5.0 (iPhone; CPU iPhone OS 18_7 like Mac OS X) AppleWebKit/605.1.15 (KHTML, like Gecko) Mobile/15E148","358","632","240","","null","<div style=""font-size:60px;"">+</div>","null","fixation","","","","","","","","","","","",""
"html-button-response","37","44700","0.0-2.0-1.17","1088","17","pre","6","afternoon","2026-04-24","2026-05-07","2026-04-29T20:02:11.599Z","Mozilla/5.0 (iPhone; CPU iPhone OS 18_7 like Mac OS X) AppleWebKit/605.1.15 (KHTML, like Gecko) Mobile/15E148","358","632","240","","1714","<div class=""prompt"" style=""font-size:24px; margin-bottom:20px;"">Which word describes you more?</div>","0","pairing","18","unlucky","tolerant","PosNeg","21","20","negative","positive","1","unlucky","left","true"
"html-keyboard-response","38","45502","0.0-2.0-0.18","1088","17","pre","6","afternoon","2026-04-24","2026-05-07","2026-04-29T20:02:11.599Z","Mozilla/5.0 (iPhone; CPU iPhone OS 18_7 like Mac OS X) AppleWebKit/605.1.15 (KHTML, like Gecko) Mobile/15E148","358","632","240","","null","<div style=""font-size:60px;"">+</div>","null","fixation","","","","","","","","","","","",""
"html-button-response","39","47199","0.0-2.0-1.18","1088","17","pre","6","afternoon","2026-04-24","2026-05-07","2026-04-29T20:02:11.599Z","Mozilla/5.0 (iPhone; CPU iPhone OS 18_7 like Mac OS X) AppleWebKit/605.1.15 (KHTML, like Gecko) Mobile/15E148","358","632","240","","1694","<div class=""prompt"" style=""font-size:24px; margin-bottom:20px;"">Which word describes you more?</div>","0","pairing","19","legendary","worthless","PosNeg","50","0","positive","negative","50","legendary","left","true"
"html-keyboard-response","40","48001","0.0-2.0-0.19","1088","17","pre","6","afternoon","2026-04-24","2026-05-07","2026-04-29T20:02:11.599Z","Mozilla/5.0 (iPhone; CPU iPhone OS 18_7 like Mac OS X) AppleWebKit/605.1.15 (KHTML, like Gecko) Mobile/15E148","358","632","240","","null","<div style=""font-size:60px;"">+</div>","null","fixation","","","","","","","","","","","",""
"html-button-response","41","48814","0.0-2.0-1.19","1088","17","pre","6","afternoon","2026-04-24","2026-05-07","2026-04-29T20:02:11.599Z","Mozilla/5.0 (iPhone; CPU iPhone OS 18_7 like Mac OS X) AppleWebKit/605.1.15 (KHTML, like Gecko) Mobile/15E148","358","632","240","","812","<div class=""prompt"" style=""font-size:24px; margin-bottom:20px;"">Which word describes you more?</div>","0","pairing","20","expert","gloomy","PosNeg","7","49","positive","negative","42","expert","left","true"
"html-keyboard-response","42","49616","0.0-2.0-0.20","1088","17","pre","6","afternoon","2026-04-24","2026-05-07","2026-04-29T20:02:11.599Z","Mozilla/5.0 (iPhone; CPU iPhone OS 18_7 like Mac OS X) AppleWebKit/605.1.15 (KHTML, like Gecko) Mobile/15E148","358","632","240","","null","<div style=""font-size:60px;"">+</div>","null","fixation","","","","","","","","","","","",""
"html-button-response","43","50637","0.0-2.0-1.20","1088","17","pre","6","afternoon","2026-04-24","2026-05-07","2026-04-29T20:02:11.599Z","Mozilla/5.0 (iPhone; CPU iPhone OS 18_7 like Mac OS X) AppleWebKit/605.1.15 (KHTML, like Gecko) Mobile/15E148","358","632","240","","1019","<div class=""prompt"" style=""font-size:24px; margin-bottom:20px;"">Which word describes you more?</div>","1","pairing","21","irritating","satisfied","PosNeg","0","48","negative","positive","48","satisfied","right","true"
"html-keyboard-response","44","51439","0.0-2.0-0.21","1088","17","pre","6","afternoon","2026-04-24","2026-05-07","2026-04-29T20:02:11.599Z","Mozilla/5.0 (iPhone; CPU iPhone OS 18_7 like Mac OS X) AppleWebKit/605.1.15 (KHTML, like Gecko) Mobile/15E148","358","632","240","","null","<div style=""font-size:60px;"">+</div>","null","fixation","","","","","","","","","","","",""
"html-button-response","45","52187","0.0-2.0-1.21","1088","17","pre","6","afternoon","2026-04-24","2026-05-07","2026-04-29T20:02:11.599Z","Mozilla/5.0 (iPhone; CPU iPhone OS 18_7 like Mac OS X) AppleWebKit/605.1.15 (KHTML, like Gecko) Mobile/15E148","358","632","240","","744","<div class=""prompt"" style=""font-size:24px; margin-bottom:20px;"">Which word describes you more?</div>","0","pairing","22","adventurous","cruel","PosNeg","71","0","positive","negative","71","adventurous","left","true"
"html-keyboard-response","46","52991","0.0-2.0-0.22","1088","17","pre","6","afternoon","2026-04-24","2026-05-07","2026-04-29T20:02:11.599Z","Mozilla/5.0 (iPhone; CPU iPhone OS 18_7 like Mac OS X) AppleWebKit/605.1.15 (KHTML, like Gecko) Mobile/15E148","358","632","240","","null","<div style=""font-size:60px;"">+</div>","null","fixation","","","","","","","","","","","",""
"html-button-response","47","54494","0.0-2.0-1.22","1088","17","pre","6","afternoon","2026-04-24","2026-05-07","2026-04-29T20:02:11.599Z","Mozilla/5.0 (iPhone; CPU iPhone OS 18_7 like Mac OS X) AppleWebKit/605.1.15 (KHTML, like Gecko) Mobile/15E148","358","632","240","","1500","<div class=""prompt"" style=""font-size:24px; margin-bottom:20px;"">Which word describes you more?</div>","0","pairing","23","distressed","expert","PosNeg","86","7","negative","positive","79","distressed","left","true"
"html-keyboard-response","48","55296","0.0-2.0-0.23","1088","17","pre","6","afternoon","2026-04-24","2026-05-07","2026-04-29T20:02:11.599Z","Mozilla/5.0 (iPhone; CPU iPhone OS 18_7 like Mac OS X) AppleWebKit/605.1.15 (KHTML, like Gecko) Mobile/15E148","358","632","240","","null","<div style=""font-size:60px;"">+</div>","null","fixation","","","","","","","","","","","",""
"html-button-response","49","56927","0.0-2.0-1.23","1088","17","pre","6","afternoon","2026-04-24","2026-05-07","2026-04-29T20:02:11.599Z","Mozilla/5.0 (iPhone; CPU iPhone OS 18_7 like Mac OS X) AppleWebKit/605.1.15 (KHTML, like Gecko) Mobile/15E148","358","632","240","","1629","<div class=""prompt"" style=""font-size:24px; margin-bottom:20px;"">Which word describes you more?</div>","0","pairing","24","capable","blissful","PosPos","94","73","positive","positive","21","capable","left","true"
"instructions","50","57627","0.0-3.0","1088","17","pre","6","afternoon","2026-04-24","2026-05-07","2026-04-29T20:02:11.599Z","Mozilla/5.0 (iPhone; CPU iPhone OS 18_7 like Mac OS X) AppleWebKit/605.1.15 (KHTML, like Gecko) Mobile/15E148","358","632","240","[{""page_index"":0,""viewing_time"":697}]","697","","","","","","","","","","","","","","",""
