"trial_type","trial_index","time_elapsed","internal_node_id","PUNS_ID","session_number","session_phase","session_day","session_slot","ema_start_date","ema_post_start_date","experiment_start","browser","screen_width","screen_height","timezone_offset","view_history","rt","stimulus","response","which_experiment_phase","trial_number","left_word","right_word","valence","left_base_rating","right_base_rating","left_valence","right_valence","abs_diff","participant_response","chosen_side","valid_response"
"pavlovia","0","1568","0.0-0.0","1086","22","pre","8","morning","2026-05-12","2026-05-24","2026-05-19T16:14:24.765Z","Mozilla/5.0 (iPhone; CPU iPhone OS 18_7 like Mac OS X) AppleWebKit/605.1.15 (KHTML, like Gecko) Mobile/15E148","361","623","420","","","","","","","","","","","","","","","","",""
"instructions","1","8765","0.0-1.0","1086","22","pre","8","morning","2026-05-12","2026-05-24","2026-05-19T16:14:24.765Z","Mozilla/5.0 (iPhone; CPU iPhone OS 18_7 like Mac OS X) AppleWebKit/605.1.15 (KHTML, like Gecko) Mobile/15E148","361","623","420","[{""page_index"":0,""viewing_time"":1117},{""page_index"":1,""viewing_time"":1702},{""page_index"":2,""viewing_time"":2496},{""page_index"":3,""viewing_time"":1880}]","7196","","","","","","","","","","","","","","",""
"html-keyboard-response","2","9569","0.0-2.0-0.0","1086","22","pre","8","morning","2026-05-12","2026-05-24","2026-05-19T16:14:24.765Z","Mozilla/5.0 (iPhone; CPU iPhone OS 18_7 like Mac OS X) AppleWebKit/605.1.15 (KHTML, like Gecko) Mobile/15E148","361","623","420","","null","<div style=""font-size:60px;"">+</div>","null","fixation","","","","","","","","","","","",""
"html-button-response","3","10830","0.0-2.0-1.0","1086","22","pre","8","morning","2026-05-12","2026-05-24","2026-05-19T16:14:24.765Z","Mozilla/5.0 (iPhone; CPU iPhone OS 18_7 like Mac OS X) AppleWebKit/605.1.15 (KHTML, like Gecko) Mobile/15E148","361","623","420","","1255","<div class=""prompt"" style=""font-size:24px; margin-bottom:20px;"">Which word describes you more?</div>","0","pairing","1","spectacular","regretful","PosNeg","17","63","positive","negative","46","spectacular","left","true"
"html-keyboard-response","4","11633","0.0-2.0-0.1","1086","22","pre","8","morning","2026-05-12","2026-05-24","2026-05-19T16:14:24.765Z","Mozilla/5.0 (iPhone; CPU iPhone OS 18_7 like Mac OS X) AppleWebKit/605.1.15 (KHTML, like Gecko) Mobile/15E148","361","623","420","","null","<div style=""font-size:60px;"">+</div>","null","fixation","","","","","","","","","","","",""
"html-button-response","5","12875","0.0-2.0-1.1","1086","22","pre","8","morning","2026-05-12","2026-05-24","2026-05-19T16:14:24.765Z","Mozilla/5.0 (iPhone; CPU iPhone OS 18_7 like Mac OS X) AppleWebKit/605.1.15 (KHTML, like Gecko) Mobile/15E148","361","623","420","","1237","<div class=""prompt"" style=""font-size:24px; margin-bottom:20px;"">Which word describes you more?</div>","1","pairing","2","bitter","knowledgeable","PosNeg","1","58","negative","positive","57","knowledgeable","right","true"
"html-keyboard-response","6","13678","0.0-2.0-0.2","1086","22","pre","8","morning","2026-05-12","2026-05-24","2026-05-19T16:14:24.765Z","Mozilla/5.0 (iPhone; CPU iPhone OS 18_7 like Mac OS X) AppleWebKit/605.1.15 (KHTML, like Gecko) Mobile/15E148","361","623","420","","null","<div style=""font-size:60px;"">+</div>","null","fixation","","","","","","","","","","","",""
"html-button-response","7","17335","0.0-2.0-1.2","1086","22","pre","8","morning","2026-05-12","2026-05-24","2026-05-19T16:14:24.765Z","Mozilla/5.0 (iPhone; CPU iPhone OS 18_7 like Mac OS X) AppleWebKit/605.1.15 (KHTML, like Gecko) Mobile/15E148","361","623","420","","3649","<div class=""prompt"" style=""font-size:24px; margin-bottom:20px;"">Which word describes you more?</div>","1","pairing","3","knowledgeable","spectacular","PosPos","58","17","positive","positive","41","spectacular","right","true"
"html-keyboard-response","8","18137","0.0-2.0-0.3","1086","22","pre","8","morning","2026-05-12","2026-05-24","2026-05-19T16:14:24.765Z","Mozilla/5.0 (iPhone; CPU iPhone OS 18_7 like Mac OS X) AppleWebKit/605.1.15 (KHTML, like Gecko) Mobile/15E148","361","623","420","","null","<div style=""font-size:60px;"">+</div>","null","fixation","","","","","","","","","","","",""
"html-button-response","9","19348","0.0-2.0-1.3","1086","22","pre","8","morning","2026-05-12","2026-05-24","2026-05-19T16:14:24.765Z","Mozilla/5.0 (iPhone; CPU iPhone OS 18_7 like Mac OS X) AppleWebKit/605.1.15 (KHTML, like Gecko) Mobile/15E148","361","623","420","","1209","<div class=""prompt"" style=""font-size:24px; margin-bottom:20px;"">Which word describes you more?</div>","1","pairing","4","loser","courteous","PosNeg","0","68","negative","positive","68","courteous","right","true"
"html-keyboard-response","10","20151","0.0-2.0-0.4","1086","22","pre","8","morning","2026-05-12","2026-05-24","2026-05-19T16:14:24.765Z","Mozilla/5.0 (iPhone; CPU iPhone OS 18_7 like Mac OS X) AppleWebKit/605.1.15 (KHTML, like Gecko) Mobile/15E148","361","623","420","","null","<div style=""font-size:60px;"">+</div>","null","fixation","","","","","","","","","","","",""
"html-button-response","11","21279","0.0-2.0-1.4","1086","22","pre","8","morning","2026-05-12","2026-05-24","2026-05-19T16:14:24.765Z","Mozilla/5.0 (iPhone; CPU iPhone OS 18_7 like Mac OS X) AppleWebKit/605.1.15 (KHTML, like Gecko) Mobile/15E148","361","623","420","","1126","<div class=""prompt"" style=""font-size:24px; margin-bottom:20px;"">Which word describes you more?</div>","0","pairing","5","committed","toxic","PosNeg","85","4","positive","negative","81","committed","left","true"
"html-keyboard-response","12","22082","0.0-2.0-0.5","1086","22","pre","8","morning","2026-05-12","2026-05-24","2026-05-19T16:14:24.765Z","Mozilla/5.0 (iPhone; CPU iPhone OS 18_7 like Mac OS X) AppleWebKit/605.1.15 (KHTML, like Gecko) Mobile/15E148","361","623","420","","null","<div style=""font-size:60px;"">+</div>","null","fixation","","","","","","","","","","","",""
"html-button-response","13","23392","0.0-2.0-1.5","1086","22","pre","8","morning","2026-05-12","2026-05-24","2026-05-19T16:14:24.765Z","Mozilla/5.0 (iPhone; CPU iPhone OS 18_7 like Mac OS X) AppleWebKit/605.1.15 (KHTML, like Gecko) Mobile/15E148","361","623","420","","1307","<div class=""prompt"" style=""font-size:24px; margin-bottom:20px;"">Which word describes you more?</div>","0","pairing","6","alluring","sadistic","PosNeg","40","0","positive","negative","40","alluring","left","true"
"html-keyboard-response","14","24195","0.0-2.0-0.6","1086","22","pre","8","morning","2026-05-12","2026-05-24","2026-05-19T16:14:24.765Z","Mozilla/5.0 (iPhone; CPU iPhone OS 18_7 like Mac OS X) AppleWebKit/605.1.15 (KHTML, like Gecko) Mobile/15E148","361","623","420","","null","<div style=""font-size:60px;"">+</div>","null","fixation","","","","","","","","","","","",""
"html-button-response","15","28300","0.0-2.0-1.6","1086","22","pre","8","morning","2026-05-12","2026-05-24","2026-05-19T16:14:24.765Z","Mozilla/5.0 (iPhone; CPU iPhone OS 18_7 like Mac OS X) AppleWebKit/605.1.15 (KHTML, like Gecko) Mobile/15E148","361","623","420","","4101","<div class=""prompt"" style=""font-size:24px; margin-bottom:20px;"">Which word describes you more?</div>","1","pairing","7","unwanted","malicious","NegNeg","22","7","negative","negative","15","malicious","right","true"
"html-keyboard-response","16","29103","0.0-2.0-0.7","1086","22","pre","8","morning","2026-05-12","2026-05-24","2026-05-19T16:14:24.765Z","Mozilla/5.0 (iPhone; CPU iPhone OS 18_7 like Mac OS X) AppleWebKit/605.1.15 (KHTML, like Gecko) Mobile/15E148","361","623","420","","null","<div style=""font-size:60px;"">+</div>","null","fixation","","","","","","","","","","","",""
"html-button-response","17","30581","0.0-2.0-1.7","1086","22","pre","8","morning","2026-05-12","2026-05-24","2026-05-19T16:14:24.765Z","Mozilla/5.0 (iPhone; CPU iPhone OS 18_7 like Mac OS X) AppleWebKit/605.1.15 (KHTML, like Gecko) Mobile/15E148","361","623","420","","1476","<div class=""prompt"" style=""font-size:24px; margin-bottom:20px;"">Which word describes you more?</div>","1","pairing","8","pest","awkward","NegNeg","20","67","negative","negative","47","awkward","right","true"
"html-keyboard-response","18","31383","0.0-2.0-0.8","1086","22","pre","8","morning","2026-05-12","2026-05-24","2026-05-19T16:14:24.765Z","Mozilla/5.0 (iPhone; CPU iPhone OS 18_7 like Mac OS X) AppleWebKit/605.1.15 (KHTML, like Gecko) Mobile/15E148","361","623","420","","null","<div style=""font-size:60px;"">+</div>","null","fixation","","","","","","","","","","","",""
"html-button-response","19","33294","0.0-2.0-1.8","1086","22","pre","8","morning","2026-05-12","2026-05-24","2026-05-19T16:14:24.765Z","Mozilla/5.0 (iPhone; CPU iPhone OS 18_7 like Mac OS X) AppleWebKit/605.1.15 (KHTML, like Gecko) Mobile/15E148","361","623","420","","1908","<div class=""prompt"" style=""font-size:24px; margin-bottom:20px;"">Which word describes you more?</div>","0","pairing","9","hesitant","achiever","PosNeg","57","74","negative","positive","17","hesitant","left","true"
"html-keyboard-response","20","34096","0.0-2.0-0.9","1086","22","pre","8","morning","2026-05-12","2026-05-24","2026-05-19T16:14:24.765Z","Mozilla/5.0 (iPhone; CPU iPhone OS 18_7 like Mac OS X) AppleWebKit/605.1.15 (KHTML, like Gecko) Mobile/15E148","361","623","420","","null","<div style=""font-size:60px;"">+</div>","null","fixation","","","","","","","","","","","",""
"html-button-response","21","36805","0.0-2.0-1.9","1086","22","pre","8","morning","2026-05-12","2026-05-24","2026-05-19T16:14:24.765Z","Mozilla/5.0 (iPhone; CPU iPhone OS 18_7 like Mac OS X) AppleWebKit/605.1.15 (KHTML, like Gecko) Mobile/15E148","361","623","420","","2707","<div class=""prompt"" style=""font-size:24px; margin-bottom:20px;"">Which word describes you more?</div>","1","pairing","10","unlucky","distressed","NegNeg","0","84","negative","negative","84","distressed","right","true"
"html-keyboard-response","22","37608","0.0-2.0-0.10","1086","22","pre","8","morning","2026-05-12","2026-05-24","2026-05-19T16:14:24.765Z","Mozilla/5.0 (iPhone; CPU iPhone OS 18_7 like Mac OS X) AppleWebKit/605.1.15 (KHTML, like Gecko) Mobile/15E148","361","623","420","","null","<div style=""font-size:60px;"">+</div>","null","fixation","","","","","","","","","","","",""
"html-button-response","23","38968","0.0-2.0-1.10","1086","22","pre","8","morning","2026-05-12","2026-05-24","2026-05-19T16:14:24.765Z","Mozilla/5.0 (iPhone; CPU iPhone OS 18_7 like Mac OS X) AppleWebKit/605.1.15 (KHTML, like Gecko) Mobile/15E148","361","623","420","","1358","<div class=""prompt"" style=""font-size:24px; margin-bottom:20px;"">Which word describes you more?</div>","1","pairing","11","fool","flawless","PosNeg","56","12","negative","positive","44","flawless","right","true"
"html-keyboard-response","24","39771","0.0-2.0-0.11","1086","22","pre","8","morning","2026-05-12","2026-05-24","2026-05-19T16:14:24.765Z","Mozilla/5.0 (iPhone; CPU iPhone OS 18_7 like Mac OS X) AppleWebKit/605.1.15 (KHTML, like Gecko) Mobile/15E148","361","623","420","","null","<div style=""font-size:60px;"">+</div>","null","fixation","","","","","","","","","","","",""
"html-button-response","25","41746","0.0-2.0-1.11","1086","22","pre","8","morning","2026-05-12","2026-05-24","2026-05-19T16:14:24.765Z","Mozilla/5.0 (iPhone; CPU iPhone OS 18_7 like Mac OS X) AppleWebKit/605.1.15 (KHTML, like Gecko) Mobile/15E148","361","623","420","","1973","<div class=""prompt"" style=""font-size:24px; margin-bottom:20px;"">Which word describes you more?</div>","1","pairing","12","problematic","miserable","NegNeg","60","0","negative","negative","60","miserable","right","true"
"html-keyboard-response","26","42549","0.0-2.0-0.12","1086","22","pre","8","morning","2026-05-12","2026-05-24","2026-05-19T16:14:24.765Z","Mozilla/5.0 (iPhone; CPU iPhone OS 18_7 like Mac OS X) AppleWebKit/605.1.15 (KHTML, like Gecko) Mobile/15E148","361","623","420","","null","<div style=""font-size:60px;"">+</div>","null","fixation","","","","","","","","","","","",""
"html-button-response","27","45325","0.0-2.0-1.12","1086","22","pre","8","morning","2026-05-12","2026-05-24","2026-05-19T16:14:24.765Z","Mozilla/5.0 (iPhone; CPU iPhone OS 18_7 like Mac OS X) AppleWebKit/605.1.15 (KHTML, like Gecko) Mobile/15E148","361","623","420","","2774","<div class=""prompt"" style=""font-size:24px; margin-bottom:20px;"">Which word describes you more?</div>","0","pairing","13","devoted","talented","PosPos","59","78","positive","positive","19","devoted","left","true"
"html-keyboard-response","28","46127","0.0-2.0-0.13","1086","22","pre","8","morning","2026-05-12","2026-05-24","2026-05-19T16:14:24.765Z","Mozilla/5.0 (iPhone; CPU iPhone OS 18_7 like Mac OS X) AppleWebKit/605.1.15 (KHTML, like Gecko) Mobile/15E148","361","623","420","","null","<div style=""font-size:60px;"">+</div>","null","fixation","","","","","","","","","","","",""
"html-button-response","29","47938","0.0-2.0-1.13","1086","22","pre","8","morning","2026-05-12","2026-05-24","2026-05-19T16:14:24.765Z","Mozilla/5.0 (iPhone; CPU iPhone OS 18_7 like Mac OS X) AppleWebKit/605.1.15 (KHTML, like Gecko) Mobile/15E148","361","623","420","","1809","<div class=""prompt"" style=""font-size:24px; margin-bottom:20px;"">Which word describes you more?</div>","1","pairing","14","peaceful","credible","PosPos","46","88","positive","positive","42","credible","right","true"
"html-keyboard-response","30","48740","0.0-2.0-0.14","1086","22","pre","8","morning","2026-05-12","2026-05-24","2026-05-19T16:14:24.765Z","Mozilla/5.0 (iPhone; CPU iPhone OS 18_7 like Mac OS X) AppleWebKit/605.1.15 (KHTML, like Gecko) Mobile/15E148","361","623","420","","null","<div style=""font-size:60px;"">+</div>","null","fixation","","","","","","","","","","","",""
"html-button-response","31","50400","0.0-2.0-1.14","1086","22","pre","8","morning","2026-05-12","2026-05-24","2026-05-19T16:14:24.765Z","Mozilla/5.0 (iPhone; CPU iPhone OS 18_7 like Mac OS X) AppleWebKit/605.1.15 (KHTML, like Gecko) Mobile/15E148","361","623","420","","1658","<div class=""prompt"" style=""font-size:24px; margin-bottom:20px;"">Which word describes you more?</div>","1","pairing","15","distressed","carefree","PosNeg","84","3","negative","positive","81","carefree","right","true"
"html-keyboard-response","32","51203","0.0-2.0-0.15","1086","22","pre","8","morning","2026-05-12","2026-05-24","2026-05-19T16:14:24.765Z","Mozilla/5.0 (iPhone; CPU iPhone OS 18_7 like Mac OS X) AppleWebKit/605.1.15 (KHTML, like Gecko) Mobile/15E148","361","623","420","","null","<div style=""font-size:60px;"">+</div>","null","fixation","","","","","","","","","","","",""
"html-button-response","33","53145","0.0-2.0-1.15","1086","22","pre","8","morning","2026-05-12","2026-05-24","2026-05-19T16:14:24.765Z","Mozilla/5.0 (iPhone; CPU iPhone OS 18_7 like Mac OS X) AppleWebKit/605.1.15 (KHTML, like Gecko) Mobile/15E148","361","623","420","","1940","<div class=""prompt"" style=""font-size:24px; margin-bottom:20px;"">Which word describes you more?</div>","1","pairing","16","legendary","valued","PosPos","1","93","positive","positive","92","valued","right","true"
"html-keyboard-response","34","53948","0.0-2.0-0.16","1086","22","pre","8","morning","2026-05-12","2026-05-24","2026-05-19T16:14:24.765Z","Mozilla/5.0 (iPhone; CPU iPhone OS 18_7 like Mac OS X) AppleWebKit/605.1.15 (KHTML, like Gecko) Mobile/15E148","361","623","420","","null","<div style=""font-size:60px;"">+</div>","null","fixation","","","","","","","","","","","",""
"html-button-response","35","56122","0.0-2.0-1.16","1086","22","pre","8","morning","2026-05-12","2026-05-24","2026-05-19T16:14:24.765Z","Mozilla/5.0 (iPhone; CPU iPhone OS 18_7 like Mac OS X) AppleWebKit/605.1.15 (KHTML, like Gecko) Mobile/15E148","361","623","420","","2172","<div class=""prompt"" style=""font-size:24px; margin-bottom:20px;"">Which word describes you more?</div>","1","pairing","17","fun","alluring","PosPos","66","40","positive","positive","26","alluring","right","true"
"html-keyboard-response","36","56925","0.0-2.0-0.17","1086","22","pre","8","morning","2026-05-12","2026-05-24","2026-05-19T16:14:24.765Z","Mozilla/5.0 (iPhone; CPU iPhone OS 18_7 like Mac OS X) AppleWebKit/605.1.15 (KHTML, like Gecko) Mobile/15E148","361","623","420","","null","<div style=""font-size:60px;"">+</div>","null","fixation","","","","","","","","","","","",""
"html-button-response","37","60334","0.0-2.0-1.17","1086","22","pre","8","morning","2026-05-12","2026-05-24","2026-05-19T16:14:24.765Z","Mozilla/5.0 (iPhone; CPU iPhone OS 18_7 like Mac OS X) AppleWebKit/605.1.15 (KHTML, like Gecko) Mobile/15E148","361","623","420","","3407","<div class=""prompt"" style=""font-size:24px; margin-bottom:20px;"">Which word describes you more?</div>","1","pairing","18","lifeless","dull","NegNeg","0","1","negative","negative","1","dull","right","true"
"html-keyboard-response","38","61136","0.0-2.0-0.18","1086","22","pre","8","morning","2026-05-12","2026-05-24","2026-05-19T16:14:24.765Z","Mozilla/5.0 (iPhone; CPU iPhone OS 18_7 like Mac OS X) AppleWebKit/605.1.15 (KHTML, like Gecko) Mobile/15E148","361","623","420","","null","<div style=""font-size:60px;"">+</div>","null","fixation","","","","","","","","","","","",""
"html-button-response","39","63644","0.0-2.0-1.18","1086","22","pre","8","morning","2026-05-12","2026-05-24","2026-05-19T16:14:24.765Z","Mozilla/5.0 (iPhone; CPU iPhone OS 18_7 like Mac OS X) AppleWebKit/605.1.15 (KHTML, like Gecko) Mobile/15E148","361","623","420","","2506","<div class=""prompt"" style=""font-size:24px; margin-bottom:20px;"">Which word describes you more?</div>","1","pairing","19","skilled","legendary","PosPos","79","1","positive","positive","78","legendary","right","true"
"html-keyboard-response","40","64446","0.0-2.0-0.19","1086","22","pre","8","morning","2026-05-12","2026-05-24","2026-05-19T16:14:24.765Z","Mozilla/5.0 (iPhone; CPU iPhone OS 18_7 like Mac OS X) AppleWebKit/605.1.15 (KHTML, like Gecko) Mobile/15E148","361","623","420","","null","<div style=""font-size:60px;"">+</div>","null","fixation","","","","","","","","","","","",""
"html-button-response","41","66325","0.0-2.0-1.19","1086","22","pre","8","morning","2026-05-12","2026-05-24","2026-05-19T16:14:24.765Z","Mozilla/5.0 (iPhone; CPU iPhone OS 18_7 like Mac OS X) AppleWebKit/605.1.15 (KHTML, like Gecko) Mobile/15E148","361","623","420","","1877","<div class=""prompt"" style=""font-size:24px; margin-bottom:20px;"">Which word describes you more?</div>","0","pairing","20","anxious","menace","NegNeg","86","1","negative","negative","85","anxious","left","true"
"html-keyboard-response","42","67127","0.0-2.0-0.20","1086","22","pre","8","morning","2026-05-12","2026-05-24","2026-05-19T16:14:24.765Z","Mozilla/5.0 (iPhone; CPU iPhone OS 18_7 like Mac OS X) AppleWebKit/605.1.15 (KHTML, like Gecko) Mobile/15E148","361","623","420","","null","<div style=""font-size:60px;"">+</div>","null","fixation","","","","","","","","","","","",""
"html-button-response","43","69054","0.0-2.0-1.20","1086","22","pre","8","morning","2026-05-12","2026-05-24","2026-05-19T16:14:24.765Z","Mozilla/5.0 (iPhone; CPU iPhone OS 18_7 like Mac OS X) AppleWebKit/605.1.15 (KHTML, like Gecko) Mobile/15E148","361","623","420","","1925","<div class=""prompt"" style=""font-size:24px; margin-bottom:20px;"">Which word describes you more?</div>","1","pairing","21","arrogant","legendary","PosNeg","8","1","negative","positive","7","legendary","right","true"
"html-keyboard-response","44","69857","0.0-2.0-0.21","1086","22","pre","8","morning","2026-05-12","2026-05-24","2026-05-19T16:14:24.765Z","Mozilla/5.0 (iPhone; CPU iPhone OS 18_7 like Mac OS X) AppleWebKit/605.1.15 (KHTML, like Gecko) Mobile/15E148","361","623","420","","null","<div style=""font-size:60px;"">+</div>","null","fixation","","","","","","","","","","","",""
"html-button-response","45","72598","0.0-2.0-1.21","1086","22","pre","8","morning","2026-05-12","2026-05-24","2026-05-19T16:14:24.765Z","Mozilla/5.0 (iPhone; CPU iPhone OS 18_7 like Mac OS X) AppleWebKit/605.1.15 (KHTML, like Gecko) Mobile/15E148","361","623","420","","2739","<div class=""prompt"" style=""font-size:24px; margin-bottom:20px;"">Which word describes you more?</div>","0","pairing","22","entertaining","problematic","PosNeg","56","60","positive","negative","4","entertaining","left","true"
"html-keyboard-response","46","73400","0.0-2.0-0.22","1086","22","pre","8","morning","2026-05-12","2026-05-24","2026-05-19T16:14:24.765Z","Mozilla/5.0 (iPhone; CPU iPhone OS 18_7 like Mac OS X) AppleWebKit/605.1.15 (KHTML, like Gecko) Mobile/15E148","361","623","420","","null","<div style=""font-size:60px;"">+</div>","null","fixation","","","","","","","","","","","",""
"html-button-response","47","75044","0.0-2.0-1.22","1086","22","pre","8","morning","2026-05-12","2026-05-24","2026-05-19T16:14:24.765Z","Mozilla/5.0 (iPhone; CPU iPhone OS 18_7 like Mac OS X) AppleWebKit/605.1.15 (KHTML, like Gecko) Mobile/15E148","361","623","420","","1640","<div class=""prompt"" style=""font-size:24px; margin-bottom:20px;"">Which word describes you more?</div>","0","pairing","23","adventurous","irritating","PosNeg","60","34","positive","negative","26","adventurous","left","true"
"html-keyboard-response","48","75847","0.0-2.0-0.23","1086","22","pre","8","morning","2026-05-12","2026-05-24","2026-05-19T16:14:24.765Z","Mozilla/5.0 (iPhone; CPU iPhone OS 18_7 like Mac OS X) AppleWebKit/605.1.15 (KHTML, like Gecko) Mobile/15E148","361","623","420","","null","<div style=""font-size:60px;"">+</div>","null","fixation","","","","","","","","","","","",""
"html-button-response","49","77821","0.0-2.0-1.23","1086","22","pre","8","morning","2026-05-12","2026-05-24","2026-05-19T16:14:24.765Z","Mozilla/5.0 (iPhone; CPU iPhone OS 18_7 like Mac OS X) AppleWebKit/605.1.15 (KHTML, like Gecko) Mobile/15E148","361","623","420","","1973","<div class=""prompt"" style=""font-size:24px; margin-bottom:20px;"">Which word describes you more?</div>","0","pairing","24","carefree","insecure","PosNeg","3","88","positive","negative","85","carefree","left","true"
"instructions","50","78905","0.0-3.0","1086","22","pre","8","morning","2026-05-12","2026-05-24","2026-05-19T16:14:24.765Z","Mozilla/5.0 (iPhone; CPU iPhone OS 18_7 like Mac OS X) AppleWebKit/605.1.15 (KHTML, like Gecko) Mobile/15E148","361","623","420","[{""page_index"":0,""viewing_time"":1082}]","1082","","","","","","","","","","","","","","",""
