"trial_type","trial_index","time_elapsed","internal_node_id","PUNS_ID","session_number","session_phase","session_day","session_slot","ema_start_date","ema_post_start_date","experiment_start","browser","screen_width","screen_height","timezone_offset","view_history","rt","stimulus","response","which_experiment_phase","trial_number","left_word","right_word","valence","left_base_rating","right_base_rating","left_valence","right_valence","abs_diff","participant_response","chosen_side","valid_response"
"pavlovia","0","1204","0.0-0.0","1071","17","pre","6","afternoon","2026-06-09","2026-06-23","2026-06-14T20:00:49.558Z","Mozilla/5.0 (iPhone; CPU iPhone OS 18_7 like Mac OS X) AppleWebKit/605.1.15 (KHTML, like Gecko) Mobile/15E148","408","733","240","","","","","","","","","","","","","","","","",""
"instructions","1","7417","0.0-1.0","1071","17","pre","6","afternoon","2026-06-09","2026-06-23","2026-06-14T20:00:49.558Z","Mozilla/5.0 (iPhone; CPU iPhone OS 18_7 like Mac OS X) AppleWebKit/605.1.15 (KHTML, like Gecko) Mobile/15E148","408","733","240","[{""page_index"":0,""viewing_time"":3568},{""page_index"":1,""viewing_time"":490},{""page_index"":2,""viewing_time"":1617},{""page_index"":3,""viewing_time"":534}]","6210","","","","","","","","","","","","","","",""
"html-keyboard-response","2","8220","0.0-2.0-0.0","1071","17","pre","6","afternoon","2026-06-09","2026-06-23","2026-06-14T20:00:49.558Z","Mozilla/5.0 (iPhone; CPU iPhone OS 18_7 like Mac OS X) AppleWebKit/605.1.15 (KHTML, like Gecko) Mobile/15E148","408","733","240","","null","<div style=""font-size:60px;"">+</div>","null","fixation","","","","","","","","","","","",""
"html-button-response","3","9254","0.0-2.0-1.0","1071","17","pre","6","afternoon","2026-06-09","2026-06-23","2026-06-14T20:00:49.558Z","Mozilla/5.0 (iPhone; CPU iPhone OS 18_7 like Mac OS X) AppleWebKit/605.1.15 (KHTML, like Gecko) Mobile/15E148","408","733","240","","1028","<div class=""prompt"" style=""font-size:24px; margin-bottom:20px;"">Which word describes you more?</div>","1","pairing","1","burden","capable","PosNeg","10","83","negative","positive","73","capable","right","true"
"html-keyboard-response","4","10057","0.0-2.0-0.1","1071","17","pre","6","afternoon","2026-06-09","2026-06-23","2026-06-14T20:00:49.558Z","Mozilla/5.0 (iPhone; CPU iPhone OS 18_7 like Mac OS X) AppleWebKit/605.1.15 (KHTML, like Gecko) Mobile/15E148","408","733","240","","null","<div style=""font-size:60px;"">+</div>","null","fixation","","","","","","","","","","","",""
"html-button-response","5","11516","0.0-2.0-1.1","1071","17","pre","6","afternoon","2026-06-09","2026-06-23","2026-06-14T20:00:49.558Z","Mozilla/5.0 (iPhone; CPU iPhone OS 18_7 like Mac OS X) AppleWebKit/605.1.15 (KHTML, like Gecko) Mobile/15E148","408","733","240","","1457","<div class=""prompt"" style=""font-size:24px; margin-bottom:20px;"">Which word describes you more?</div>","1","pairing","2","talented","achiever","PosPos","18","76","positive","positive","58","achiever","right","true"
"html-keyboard-response","6","12318","0.0-2.0-0.2","1071","17","pre","6","afternoon","2026-06-09","2026-06-23","2026-06-14T20:00:49.558Z","Mozilla/5.0 (iPhone; CPU iPhone OS 18_7 like Mac OS X) AppleWebKit/605.1.15 (KHTML, like Gecko) Mobile/15E148","408","733","240","","null","<div style=""font-size:60px;"">+</div>","null","fixation","","","","","","","","","","","",""
"html-button-response","7","14018","0.0-2.0-1.2","1071","17","pre","6","afternoon","2026-06-09","2026-06-23","2026-06-14T20:00:49.558Z","Mozilla/5.0 (iPhone; CPU iPhone OS 18_7 like Mac OS X) AppleWebKit/605.1.15 (KHTML, like Gecko) Mobile/15E148","408","733","240","","1698","<div class=""prompt"" style=""font-size:24px; margin-bottom:20px;"">Which word describes you more?</div>","0","pairing","3","idealistic","deceitful","PosNeg","67","4","positive","negative","63","idealistic","left","true"
"html-keyboard-response","8","14820","0.0-2.0-0.3","1071","17","pre","6","afternoon","2026-06-09","2026-06-23","2026-06-14T20:00:49.558Z","Mozilla/5.0 (iPhone; CPU iPhone OS 18_7 like Mac OS X) AppleWebKit/605.1.15 (KHTML, like Gecko) Mobile/15E148","408","733","240","","null","<div style=""font-size:60px;"">+</div>","null","fixation","","","","","","","","","","","",""
"html-button-response","9","15943","0.0-2.0-1.3","1071","17","pre","6","afternoon","2026-06-09","2026-06-23","2026-06-14T20:00:49.558Z","Mozilla/5.0 (iPhone; CPU iPhone OS 18_7 like Mac OS X) AppleWebKit/605.1.15 (KHTML, like Gecko) Mobile/15E148","408","733","240","","1121","<div class=""prompt"" style=""font-size:24px; margin-bottom:20px;"">Which word describes you more?</div>","0","pairing","4","proficient","miserable","PosNeg","67","0","positive","negative","67","proficient","left","true"
"html-keyboard-response","10","16746","0.0-2.0-0.4","1071","17","pre","6","afternoon","2026-06-09","2026-06-23","2026-06-14T20:00:49.558Z","Mozilla/5.0 (iPhone; CPU iPhone OS 18_7 like Mac OS X) AppleWebKit/605.1.15 (KHTML, like Gecko) Mobile/15E148","408","733","240","","null","<div style=""font-size:60px;"">+</div>","null","fixation","","","","","","","","","","","",""
"html-button-response","11","17668","0.0-2.0-1.4","1071","17","pre","6","afternoon","2026-06-09","2026-06-23","2026-06-14T20:00:49.558Z","Mozilla/5.0 (iPhone; CPU iPhone OS 18_7 like Mac OS X) AppleWebKit/605.1.15 (KHTML, like Gecko) Mobile/15E148","408","733","240","","921","<div class=""prompt"" style=""font-size:24px; margin-bottom:20px;"">Which word describes you more?</div>","1","pairing","5","rude","stingy","NegNeg","1","36","negative","negative","35","stingy","right","true"
"html-keyboard-response","12","18470","0.0-2.0-0.5","1071","17","pre","6","afternoon","2026-06-09","2026-06-23","2026-06-14T20:00:49.558Z","Mozilla/5.0 (iPhone; CPU iPhone OS 18_7 like Mac OS X) AppleWebKit/605.1.15 (KHTML, like Gecko) Mobile/15E148","408","733","240","","null","<div style=""font-size:60px;"">+</div>","null","fixation","","","","","","","","","","","",""
"html-button-response","13","19527","0.0-2.0-1.5","1071","17","pre","6","afternoon","2026-06-09","2026-06-23","2026-06-14T20:00:49.558Z","Mozilla/5.0 (iPhone; CPU iPhone OS 18_7 like Mac OS X) AppleWebKit/605.1.15 (KHTML, like Gecko) Mobile/15E148","408","733","240","","1055","<div class=""prompt"" style=""font-size:24px; margin-bottom:20px;"">Which word describes you more?</div>","0","pairing","6","stingy","champion","PosNeg","36","42","negative","positive","6","stingy","left","true"
"html-keyboard-response","14","20329","0.0-2.0-0.6","1071","17","pre","6","afternoon","2026-06-09","2026-06-23","2026-06-14T20:00:49.558Z","Mozilla/5.0 (iPhone; CPU iPhone OS 18_7 like Mac OS X) AppleWebKit/605.1.15 (KHTML, like Gecko) Mobile/15E148","408","733","240","","null","<div style=""font-size:60px;"">+</div>","null","fixation","","","","","","","","","","","",""
"html-button-response","15","21318","0.0-2.0-1.6","1071","17","pre","6","afternoon","2026-06-09","2026-06-23","2026-06-14T20:00:49.558Z","Mozilla/5.0 (iPhone; CPU iPhone OS 18_7 like Mac OS X) AppleWebKit/605.1.15 (KHTML, like Gecko) Mobile/15E148","408","733","240","","986","<div class=""prompt"" style=""font-size:24px; margin-bottom:20px;"">Which word describes you more?</div>","0","pairing","7","awkward","immoral","NegNeg","37","0","negative","negative","37","awkward","left","true"
"html-keyboard-response","16","22121","0.0-2.0-0.7","1071","17","pre","6","afternoon","2026-06-09","2026-06-23","2026-06-14T20:00:49.558Z","Mozilla/5.0 (iPhone; CPU iPhone OS 18_7 like Mac OS X) AppleWebKit/605.1.15 (KHTML, like Gecko) Mobile/15E148","408","733","240","","null","<div style=""font-size:60px;"">+</div>","null","fixation","","","","","","","","","","","",""
"html-button-response","17","24276","0.0-2.0-1.7","1071","17","pre","6","afternoon","2026-06-09","2026-06-23","2026-06-14T20:00:49.558Z","Mozilla/5.0 (iPhone; CPU iPhone OS 18_7 like Mac OS X) AppleWebKit/605.1.15 (KHTML, like Gecko) Mobile/15E148","408","733","240","","2153","<div class=""prompt"" style=""font-size:24px; margin-bottom:20px;"">Which word describes you more?</div>","1","pairing","8","empty","alone","NegNeg","4","16","negative","negative","12","alone","right","true"
"html-keyboard-response","18","25078","0.0-2.0-0.8","1071","17","pre","6","afternoon","2026-06-09","2026-06-23","2026-06-14T20:00:49.558Z","Mozilla/5.0 (iPhone; CPU iPhone OS 18_7 like Mac OS X) AppleWebKit/605.1.15 (KHTML, like Gecko) Mobile/15E148","408","733","240","","null","<div style=""font-size:60px;"">+</div>","null","fixation","","","","","","","","","","","",""
"html-button-response","19","26243","0.0-2.0-1.8","1071","17","pre","6","afternoon","2026-06-09","2026-06-23","2026-06-14T20:00:49.558Z","Mozilla/5.0 (iPhone; CPU iPhone OS 18_7 like Mac OS X) AppleWebKit/605.1.15 (KHTML, like Gecko) Mobile/15E148","408","733","240","","1160","<div class=""prompt"" style=""font-size:24px; margin-bottom:20px;"">Which word describes you more?</div>","1","pairing","9","cooperative","adventurous","PosPos","88","58","positive","positive","30","adventurous","right","true"
"html-keyboard-response","20","27046","0.0-2.0-0.9","1071","17","pre","6","afternoon","2026-06-09","2026-06-23","2026-06-14T20:00:49.558Z","Mozilla/5.0 (iPhone; CPU iPhone OS 18_7 like Mac OS X) AppleWebKit/605.1.15 (KHTML, like Gecko) Mobile/15E148","408","733","240","","null","<div style=""font-size:60px;"">+</div>","null","fixation","","","","","","","","","","","",""
"html-button-response","21","29351","0.0-2.0-1.9","1071","17","pre","6","afternoon","2026-06-09","2026-06-23","2026-06-14T20:00:49.558Z","Mozilla/5.0 (iPhone; CPU iPhone OS 18_7 like Mac OS X) AppleWebKit/605.1.15 (KHTML, like Gecko) Mobile/15E148","408","733","240","","2303","<div class=""prompt"" style=""font-size:24px; margin-bottom:20px;"">Which word describes you more?</div>","0","pairing","10","awful","traitor","NegNeg","6","3","negative","negative","3","awful","left","true"
"html-keyboard-response","22","30154","0.0-2.0-0.10","1071","17","pre","6","afternoon","2026-06-09","2026-06-23","2026-06-14T20:00:49.558Z","Mozilla/5.0 (iPhone; CPU iPhone OS 18_7 like Mac OS X) AppleWebKit/605.1.15 (KHTML, like Gecko) Mobile/15E148","408","733","240","","null","<div style=""font-size:60px;"">+</div>","null","fixation","","","","","","","","","","","",""
"html-button-response","23","31114","0.0-2.0-1.10","1071","17","pre","6","afternoon","2026-06-09","2026-06-23","2026-06-14T20:00:49.558Z","Mozilla/5.0 (iPhone; CPU iPhone OS 18_7 like Mac OS X) AppleWebKit/605.1.15 (KHTML, like Gecko) Mobile/15E148","408","733","240","","958","<div class=""prompt"" style=""font-size:24px; margin-bottom:20px;"">Which word describes you more?</div>","0","pairing","11","delight","hateful","PosNeg","56","18","positive","negative","38","delight","left","true"
"html-keyboard-response","24","31916","0.0-2.0-0.11","1071","17","pre","6","afternoon","2026-06-09","2026-06-23","2026-06-14T20:00:49.558Z","Mozilla/5.0 (iPhone; CPU iPhone OS 18_7 like Mac OS X) AppleWebKit/605.1.15 (KHTML, like Gecko) Mobile/15E148","408","733","240","","null","<div style=""font-size:60px;"">+</div>","null","fixation","","","","","","","","","","","",""
"html-button-response","25","33022","0.0-2.0-1.11","1071","17","pre","6","afternoon","2026-06-09","2026-06-23","2026-06-14T20:00:49.558Z","Mozilla/5.0 (iPhone; CPU iPhone OS 18_7 like Mac OS X) AppleWebKit/605.1.15 (KHTML, like Gecko) Mobile/15E148","408","733","240","","1104","<div class=""prompt"" style=""font-size:24px; margin-bottom:20px;"">Which word describes you more?</div>","0","pairing","12","unwanted","creep","NegNeg","11","0","negative","negative","11","unwanted","left","true"
"html-keyboard-response","26","33824","0.0-2.0-0.12","1071","17","pre","6","afternoon","2026-06-09","2026-06-23","2026-06-14T20:00:49.558Z","Mozilla/5.0 (iPhone; CPU iPhone OS 18_7 like Mac OS X) AppleWebKit/605.1.15 (KHTML, like Gecko) Mobile/15E148","408","733","240","","null","<div style=""font-size:60px;"">+</div>","null","fixation","","","","","","","","","","","",""
"html-button-response","27","35039","0.0-2.0-1.12","1071","17","pre","6","afternoon","2026-06-09","2026-06-23","2026-06-14T20:00:49.558Z","Mozilla/5.0 (iPhone; CPU iPhone OS 18_7 like Mac OS X) AppleWebKit/605.1.15 (KHTML, like Gecko) Mobile/15E148","408","733","240","","1213","<div class=""prompt"" style=""font-size:24px; margin-bottom:20px;"">Which word describes you more?</div>","1","pairing","13","anxious","blissful","PosNeg","38","9","negative","positive","29","blissful","right","true"
"html-keyboard-response","28","35841","0.0-2.0-0.13","1071","17","pre","6","afternoon","2026-06-09","2026-06-23","2026-06-14T20:00:49.558Z","Mozilla/5.0 (iPhone; CPU iPhone OS 18_7 like Mac OS X) AppleWebKit/605.1.15 (KHTML, like Gecko) Mobile/15E148","408","733","240","","null","<div style=""font-size:60px;"">+</div>","null","fixation","","","","","","","","","","","",""
"html-button-response","29","37024","0.0-2.0-1.13","1071","17","pre","6","afternoon","2026-06-09","2026-06-23","2026-06-14T20:00:49.558Z","Mozilla/5.0 (iPhone; CPU iPhone OS 18_7 like Mac OS X) AppleWebKit/605.1.15 (KHTML, like Gecko) Mobile/15E148","408","733","240","","1182","<div class=""prompt"" style=""font-size:24px; margin-bottom:20px;"">Which word describes you more?</div>","0","pairing","14","cooperative","talented","PosPos","88","18","positive","positive","70","cooperative","left","true"
"html-keyboard-response","30","37826","0.0-2.0-0.14","1071","17","pre","6","afternoon","2026-06-09","2026-06-23","2026-06-14T20:00:49.558Z","Mozilla/5.0 (iPhone; CPU iPhone OS 18_7 like Mac OS X) AppleWebKit/605.1.15 (KHTML, like Gecko) Mobile/15E148","408","733","240","","null","<div style=""font-size:60px;"">+</div>","null","fixation","","","","","","","","","","","",""
"html-button-response","31","40017","0.0-2.0-1.14","1071","17","pre","6","afternoon","2026-06-09","2026-06-23","2026-06-14T20:00:49.558Z","Mozilla/5.0 (iPhone; CPU iPhone OS 18_7 like Mac OS X) AppleWebKit/605.1.15 (KHTML, like Gecko) Mobile/15E148","408","733","240","","2189","<div class=""prompt"" style=""font-size:24px; margin-bottom:20px;"">Which word describes you more?</div>","1","pairing","15","parasite","coward","NegNeg","2","0","negative","negative","2","coward","right","true"
"html-keyboard-response","32","40819","0.0-2.0-0.15","1071","17","pre","6","afternoon","2026-06-09","2026-06-23","2026-06-14T20:00:49.558Z","Mozilla/5.0 (iPhone; CPU iPhone OS 18_7 like Mac OS X) AppleWebKit/605.1.15 (KHTML, like Gecko) Mobile/15E148","408","733","240","","null","<div style=""font-size:60px;"">+</div>","null","fixation","","","","","","","","","","","",""
"html-button-response","33","41817","0.0-2.0-1.15","1071","17","pre","6","afternoon","2026-06-09","2026-06-23","2026-06-14T20:00:49.558Z","Mozilla/5.0 (iPhone; CPU iPhone OS 18_7 like Mac OS X) AppleWebKit/605.1.15 (KHTML, like Gecko) Mobile/15E148","408","733","240","","996","<div class=""prompt"" style=""font-size:24px; margin-bottom:20px;"">Which word describes you more?</div>","1","pairing","16","blissful","patient","PosPos","9","87","positive","positive","78","patient","right","true"
"html-keyboard-response","34","42619","0.0-2.0-0.16","1071","17","pre","6","afternoon","2026-06-09","2026-06-23","2026-06-14T20:00:49.558Z","Mozilla/5.0 (iPhone; CPU iPhone OS 18_7 like Mac OS X) AppleWebKit/605.1.15 (KHTML, like Gecko) Mobile/15E148","408","733","240","","null","<div style=""font-size:60px;"">+</div>","null","fixation","","","","","","","","","","","",""
"html-button-response","35","44432","0.0-2.0-1.16","1071","17","pre","6","afternoon","2026-06-09","2026-06-23","2026-06-14T20:00:49.558Z","Mozilla/5.0 (iPhone; CPU iPhone OS 18_7 like Mac OS X) AppleWebKit/605.1.15 (KHTML, like Gecko) Mobile/15E148","408","733","240","","1811","<div class=""prompt"" style=""font-size:24px; margin-bottom:20px;"">Which word describes you more?</div>","0","pairing","17","proficient","legendary","PosPos","67","31","positive","positive","36","proficient","left","true"
"html-keyboard-response","36","45234","0.0-2.0-0.17","1071","17","pre","6","afternoon","2026-06-09","2026-06-23","2026-06-14T20:00:49.558Z","Mozilla/5.0 (iPhone; CPU iPhone OS 18_7 like Mac OS X) AppleWebKit/605.1.15 (KHTML, like Gecko) Mobile/15E148","408","733","240","","null","<div style=""font-size:60px;"">+</div>","null","fixation","","","","","","","","","","","",""
"html-button-response","37","46125","0.0-2.0-1.17","1071","17","pre","6","afternoon","2026-06-09","2026-06-23","2026-06-14T20:00:49.558Z","Mozilla/5.0 (iPhone; CPU iPhone OS 18_7 like Mac OS X) AppleWebKit/605.1.15 (KHTML, like Gecko) Mobile/15E148","408","733","240","","889","<div class=""prompt"" style=""font-size:24px; margin-bottom:20px;"">Which word describes you more?</div>","0","pairing","18","knowledgeable","prick","PosNeg","68","0","positive","negative","68","knowledgeable","left","true"
"html-keyboard-response","38","46927","0.0-2.0-0.18","1071","17","pre","6","afternoon","2026-06-09","2026-06-23","2026-06-14T20:00:49.558Z","Mozilla/5.0 (iPhone; CPU iPhone OS 18_7 like Mac OS X) AppleWebKit/605.1.15 (KHTML, like Gecko) Mobile/15E148","408","733","240","","null","<div style=""font-size:60px;"">+</div>","null","fixation","","","","","","","","","","","",""
"html-button-response","39","48100","0.0-2.0-1.18","1071","17","pre","6","afternoon","2026-06-09","2026-06-23","2026-06-14T20:00:49.558Z","Mozilla/5.0 (iPhone; CPU iPhone OS 18_7 like Mac OS X) AppleWebKit/605.1.15 (KHTML, like Gecko) Mobile/15E148","408","733","240","","1171","<div class=""prompt"" style=""font-size:24px; margin-bottom:20px;"">Which word describes you more?</div>","0","pairing","19","blissful","regretful","PosNeg","9","14","positive","negative","5","blissful","left","true"
"html-keyboard-response","40","48902","0.0-2.0-0.19","1071","17","pre","6","afternoon","2026-06-09","2026-06-23","2026-06-14T20:00:49.558Z","Mozilla/5.0 (iPhone; CPU iPhone OS 18_7 like Mac OS X) AppleWebKit/605.1.15 (KHTML, like Gecko) Mobile/15E148","408","733","240","","null","<div style=""font-size:60px;"">+</div>","null","fixation","","","","","","","","","","","",""
"html-button-response","41","49809","0.0-2.0-1.19","1071","17","pre","6","afternoon","2026-06-09","2026-06-23","2026-06-14T20:00:49.558Z","Mozilla/5.0 (iPhone; CPU iPhone OS 18_7 like Mac OS X) AppleWebKit/605.1.15 (KHTML, like Gecko) Mobile/15E148","408","733","240","","905","<div class=""prompt"" style=""font-size:24px; margin-bottom:20px;"">Which word describes you more?</div>","0","pairing","20","virtuous","boring","PosNeg","56","26","positive","negative","30","virtuous","left","true"
"html-keyboard-response","42","50611","0.0-2.0-0.20","1071","17","pre","6","afternoon","2026-06-09","2026-06-23","2026-06-14T20:00:49.558Z","Mozilla/5.0 (iPhone; CPU iPhone OS 18_7 like Mac OS X) AppleWebKit/605.1.15 (KHTML, like Gecko) Mobile/15E148","408","733","240","","null","<div style=""font-size:60px;"">+</div>","null","fixation","","","","","","","","","","","",""
"html-button-response","43","51842","0.0-2.0-1.20","1071","17","pre","6","afternoon","2026-06-09","2026-06-23","2026-06-14T20:00:49.558Z","Mozilla/5.0 (iPhone; CPU iPhone OS 18_7 like Mac OS X) AppleWebKit/605.1.15 (KHTML, like Gecko) Mobile/15E148","408","733","240","","1230","<div class=""prompt"" style=""font-size:24px; margin-bottom:20px;"">Which word describes you more?</div>","0","pairing","21","pleased","unlucky","PosNeg","58","17","positive","negative","41","pleased","left","true"
"html-keyboard-response","44","52644","0.0-2.0-0.21","1071","17","pre","6","afternoon","2026-06-09","2026-06-23","2026-06-14T20:00:49.558Z","Mozilla/5.0 (iPhone; CPU iPhone OS 18_7 like Mac OS X) AppleWebKit/605.1.15 (KHTML, like Gecko) Mobile/15E148","408","733","240","","null","<div style=""font-size:60px;"">+</div>","null","fixation","","","","","","","","","","","",""
"html-button-response","45","53983","0.0-2.0-1.21","1071","17","pre","6","afternoon","2026-06-09","2026-06-23","2026-06-14T20:00:49.558Z","Mozilla/5.0 (iPhone; CPU iPhone OS 18_7 like Mac OS X) AppleWebKit/605.1.15 (KHTML, like Gecko) Mobile/15E148","408","733","240","","1338","<div class=""prompt"" style=""font-size:24px; margin-bottom:20px;"">Which word describes you more?</div>","1","pairing","22","anxious","visionary","PosNeg","38","75","negative","positive","37","visionary","right","true"
"html-keyboard-response","46","54786","0.0-2.0-0.22","1071","17","pre","6","afternoon","2026-06-09","2026-06-23","2026-06-14T20:00:49.558Z","Mozilla/5.0 (iPhone; CPU iPhone OS 18_7 like Mac OS X) AppleWebKit/605.1.15 (KHTML, like Gecko) Mobile/15E148","408","733","240","","null","<div style=""font-size:60px;"">+</div>","null","fixation","","","","","","","","","","","",""
"html-button-response","47","55993","0.0-2.0-1.22","1071","17","pre","6","afternoon","2026-06-09","2026-06-23","2026-06-14T20:00:49.558Z","Mozilla/5.0 (iPhone; CPU iPhone OS 18_7 like Mac OS X) AppleWebKit/605.1.15 (KHTML, like Gecko) Mobile/15E148","408","733","240","","1206","<div class=""prompt"" style=""font-size:24px; margin-bottom:20px;"">Which word describes you more?</div>","1","pairing","23","unpleasant","honest","PosNeg","3","82","negative","positive","79","honest","right","true"
"html-keyboard-response","48","56795","0.0-2.0-0.23","1071","17","pre","6","afternoon","2026-06-09","2026-06-23","2026-06-14T20:00:49.558Z","Mozilla/5.0 (iPhone; CPU iPhone OS 18_7 like Mac OS X) AppleWebKit/605.1.15 (KHTML, like Gecko) Mobile/15E148","408","733","240","","null","<div style=""font-size:60px;"">+</div>","null","fixation","","","","","","","","","","","",""
"html-button-response","49","57876","0.0-2.0-1.23","1071","17","pre","6","afternoon","2026-06-09","2026-06-23","2026-06-14T20:00:49.558Z","Mozilla/5.0 (iPhone; CPU iPhone OS 18_7 like Mac OS X) AppleWebKit/605.1.15 (KHTML, like Gecko) Mobile/15E148","408","733","240","","1079","<div class=""prompt"" style=""font-size:24px; margin-bottom:20px;"">Which word describes you more?</div>","0","pairing","24","appealing","cooperative","PosPos","61","88","positive","positive","27","appealing","left","true"
"instructions","50","58667","0.0-3.0","1071","17","pre","6","afternoon","2026-06-09","2026-06-23","2026-06-14T20:00:49.558Z","Mozilla/5.0 (iPhone; CPU iPhone OS 18_7 like Mac OS X) AppleWebKit/605.1.15 (KHTML, like Gecko) Mobile/15E148","408","733","240","[{""page_index"":0,""viewing_time"":790}]","791","","","","","","","","","","","","","","",""
