"trial_type","trial_index","time_elapsed","internal_node_id","PUNS_ID","session_number","session_phase","session_day","session_slot","ema_start_date","ema_post_start_date","experiment_start","browser","screen_width","screen_height","timezone_offset","view_history","rt","stimulus","response","which_experiment_phase","trial_number","left_word","right_word","valence","left_base_rating","right_base_rating","left_valence","right_valence","abs_diff","participant_response","chosen_side","valid_response"
"pavlovia","0","1936","0.0-0.0","1016","11","pre","4","afternoon","2026-02-11","2026-02-23","2026-02-14T23:57:50.397Z","Mozilla/5.0 (iPhone; CPU iPhone OS 18_7 like Mac OS X) AppleWebKit/605.1.15 (KHTML, like Gecko) Mobile/15E148","358","632","420","","","","","","","","","","","","","","","","",""
"instructions","1","6290","0.0-1.0","1016","11","pre","4","afternoon","2026-02-11","2026-02-23","2026-02-14T23:57:50.397Z","Mozilla/5.0 (iPhone; CPU iPhone OS 18_7 like Mac OS X) AppleWebKit/605.1.15 (KHTML, like Gecko) Mobile/15E148","358","632","420","[{""page_index"":0,""viewing_time"":827},{""page_index"":1,""viewing_time"":655},{""page_index"":2,""viewing_time"":1637},{""page_index"":3,""viewing_time"":1232}]","4352","","","","","","","","","","","","","","",""
"html-keyboard-response","2","7094","0.0-2.0-0.0","1016","11","pre","4","afternoon","2026-02-11","2026-02-23","2026-02-14T23:57:50.397Z","Mozilla/5.0 (iPhone; CPU iPhone OS 18_7 like Mac OS X) AppleWebKit/605.1.15 (KHTML, like Gecko) Mobile/15E148","358","632","420","","null","<div style=""font-size:60px;"">+</div>","null","fixation","","","","","","","","","","","",""
"html-button-response","3","9006","0.0-2.0-1.0","1016","11","pre","4","afternoon","2026-02-11","2026-02-23","2026-02-14T23:57:50.397Z","Mozilla/5.0 (iPhone; CPU iPhone OS 18_7 like Mac OS X) AppleWebKit/605.1.15 (KHTML, like Gecko) Mobile/15E148","358","632","420","","1907","<div class=""prompt"" style=""font-size:24px; margin-bottom:20px;"">Which word describes you more?</div>","0","pairing","1","tolerant","awkward","PosNeg","86","65","positive","negative","21","tolerant","left","true"
"html-keyboard-response","4","9809","0.0-2.0-0.1","1016","11","pre","4","afternoon","2026-02-11","2026-02-23","2026-02-14T23:57:50.397Z","Mozilla/5.0 (iPhone; CPU iPhone OS 18_7 like Mac OS X) AppleWebKit/605.1.15 (KHTML, like Gecko) Mobile/15E148","358","632","420","","null","<div style=""font-size:60px;"">+</div>","null","fixation","","","","","","","","","","","",""
"html-button-response","5","12403","0.0-2.0-1.1","1016","11","pre","4","afternoon","2026-02-11","2026-02-23","2026-02-14T23:57:50.397Z","Mozilla/5.0 (iPhone; CPU iPhone OS 18_7 like Mac OS X) AppleWebKit/605.1.15 (KHTML, like Gecko) Mobile/15E148","358","632","420","","2591","<div class=""prompt"" style=""font-size:24px; margin-bottom:20px;"">Which word describes you more?</div>","0","pairing","2","virtuous","menace","PosNeg","51","50","positive","negative","1","virtuous","left","true"
"html-keyboard-response","6","13205","0.0-2.0-0.2","1016","11","pre","4","afternoon","2026-02-11","2026-02-23","2026-02-14T23:57:50.397Z","Mozilla/5.0 (iPhone; CPU iPhone OS 18_7 like Mac OS X) AppleWebKit/605.1.15 (KHTML, like Gecko) Mobile/15E148","358","632","420","","null","<div style=""font-size:60px;"">+</div>","null","fixation","","","","","","","","","","","",""
"html-button-response","7","15720","0.0-2.0-1.2","1016","11","pre","4","afternoon","2026-02-11","2026-02-23","2026-02-14T23:57:50.397Z","Mozilla/5.0 (iPhone; CPU iPhone OS 18_7 like Mac OS X) AppleWebKit/605.1.15 (KHTML, like Gecko) Mobile/15E148","358","632","420","","2512","<div class=""prompt"" style=""font-size:24px; margin-bottom:20px;"">Which word describes you more?</div>","0","pairing","3","witty","phony","PosNeg","50","0","positive","negative","50","witty","left","true"
"html-keyboard-response","8","16523","0.0-2.0-0.3","1016","11","pre","4","afternoon","2026-02-11","2026-02-23","2026-02-14T23:57:50.397Z","Mozilla/5.0 (iPhone; CPU iPhone OS 18_7 like Mac OS X) AppleWebKit/605.1.15 (KHTML, like Gecko) Mobile/15E148","358","632","420","","null","<div style=""font-size:60px;"">+</div>","null","fixation","","","","","","","","","","","",""
"html-button-response","9","18434","0.0-2.0-1.3","1016","11","pre","4","afternoon","2026-02-11","2026-02-23","2026-02-14T23:57:50.397Z","Mozilla/5.0 (iPhone; CPU iPhone OS 18_7 like Mac OS X) AppleWebKit/605.1.15 (KHTML, like Gecko) Mobile/15E148","358","632","420","","1909","<div class=""prompt"" style=""font-size:24px; margin-bottom:20px;"">Which word describes you more?</div>","0","pairing","4","irritating","malicious","NegNeg","71","4","negative","negative","67","irritating","left","true"
"html-keyboard-response","10","19237","0.0-2.0-0.4","1016","11","pre","4","afternoon","2026-02-11","2026-02-23","2026-02-14T23:57:50.397Z","Mozilla/5.0 (iPhone; CPU iPhone OS 18_7 like Mac OS X) AppleWebKit/605.1.15 (KHTML, like Gecko) Mobile/15E148","358","632","420","","null","<div style=""font-size:60px;"">+</div>","null","fixation","","","","","","","","","","","",""
"html-button-response","11","20953","0.0-2.0-1.4","1016","11","pre","4","afternoon","2026-02-11","2026-02-23","2026-02-14T23:57:50.397Z","Mozilla/5.0 (iPhone; CPU iPhone OS 18_7 like Mac OS X) AppleWebKit/605.1.15 (KHTML, like Gecko) Mobile/15E148","358","632","420","","1712","<div class=""prompt"" style=""font-size:24px; margin-bottom:20px;"">Which word describes you more?</div>","1","pairing","5","graceful","resourceful","PosPos","23","93","positive","positive","70","resourceful","right","true"
"html-keyboard-response","12","21757","0.0-2.0-0.5","1016","11","pre","4","afternoon","2026-02-11","2026-02-23","2026-02-14T23:57:50.397Z","Mozilla/5.0 (iPhone; CPU iPhone OS 18_7 like Mac OS X) AppleWebKit/605.1.15 (KHTML, like Gecko) Mobile/15E148","358","632","420","","null","<div style=""font-size:60px;"">+</div>","null","fixation","","","","","","","","","","","",""
"html-button-response","13","23769","0.0-2.0-1.5","1016","11","pre","4","afternoon","2026-02-11","2026-02-23","2026-02-14T23:57:50.397Z","Mozilla/5.0 (iPhone; CPU iPhone OS 18_7 like Mac OS X) AppleWebKit/605.1.15 (KHTML, like Gecko) Mobile/15E148","358","632","420","","2009","<div class=""prompt"" style=""font-size:24px; margin-bottom:20px;"">Which word describes you more?</div>","0","pairing","6","phony","coward","NegNeg","0","51","negative","negative","51","phony","left","true"
"html-keyboard-response","14","24571","0.0-2.0-0.6","1016","11","pre","4","afternoon","2026-02-11","2026-02-23","2026-02-14T23:57:50.397Z","Mozilla/5.0 (iPhone; CPU iPhone OS 18_7 like Mac OS X) AppleWebKit/605.1.15 (KHTML, like Gecko) Mobile/15E148","358","632","420","","null","<div style=""font-size:60px;"">+</div>","null","fixation","","","","","","","","","","","",""
"html-button-response","15","26335","0.0-2.0-1.6","1016","11","pre","4","afternoon","2026-02-11","2026-02-23","2026-02-14T23:57:50.397Z","Mozilla/5.0 (iPhone; CPU iPhone OS 18_7 like Mac OS X) AppleWebKit/605.1.15 (KHTML, like Gecko) Mobile/15E148","358","632","420","","1760","<div class=""prompt"" style=""font-size:24px; margin-bottom:20px;"">Which word describes you more?</div>","1","pairing","7","sophisticated","selfish","PosNeg","7","38","positive","negative","31","selfish","right","true"
"html-keyboard-response","16","27137","0.0-2.0-0.7","1016","11","pre","4","afternoon","2026-02-11","2026-02-23","2026-02-14T23:57:50.397Z","Mozilla/5.0 (iPhone; CPU iPhone OS 18_7 like Mac OS X) AppleWebKit/605.1.15 (KHTML, like Gecko) Mobile/15E148","358","632","420","","null","<div style=""font-size:60px;"">+</div>","null","fixation","","","","","","","","","","","",""
"html-button-response","17","29165","0.0-2.0-1.7","1016","11","pre","4","afternoon","2026-02-11","2026-02-23","2026-02-14T23:57:50.397Z","Mozilla/5.0 (iPhone; CPU iPhone OS 18_7 like Mac OS X) AppleWebKit/605.1.15 (KHTML, like Gecko) Mobile/15E148","358","632","420","","2026","<div class=""prompt"" style=""font-size:24px; margin-bottom:20px;"">Which word describes you more?</div>","1","pairing","8","attractive","skilled","PosPos","48","74","positive","positive","26","skilled","right","true"
"html-keyboard-response","18","29968","0.0-2.0-0.8","1016","11","pre","4","afternoon","2026-02-11","2026-02-23","2026-02-14T23:57:50.397Z","Mozilla/5.0 (iPhone; CPU iPhone OS 18_7 like Mac OS X) AppleWebKit/605.1.15 (KHTML, like Gecko) Mobile/15E148","358","632","420","","null","<div style=""font-size:60px;"">+</div>","null","fixation","","","","","","","","","","","",""
"html-button-response","19","31566","0.0-2.0-1.8","1016","11","pre","4","afternoon","2026-02-11","2026-02-23","2026-02-14T23:57:50.397Z","Mozilla/5.0 (iPhone; CPU iPhone OS 18_7 like Mac OS X) AppleWebKit/605.1.15 (KHTML, like Gecko) Mobile/15E148","358","632","420","","1596","<div class=""prompt"" style=""font-size:24px; margin-bottom:20px;"">Which word describes you more?</div>","1","pairing","9","hater","champion","PosNeg","32","59","negative","positive","27","champion","right","true"
"html-keyboard-response","20","32369","0.0-2.0-0.9","1016","11","pre","4","afternoon","2026-02-11","2026-02-23","2026-02-14T23:57:50.397Z","Mozilla/5.0 (iPhone; CPU iPhone OS 18_7 like Mac OS X) AppleWebKit/605.1.15 (KHTML, like Gecko) Mobile/15E148","358","632","420","","null","<div style=""font-size:60px;"">+</div>","null","fixation","","","","","","","","","","","",""
"html-button-response","21","34250","0.0-2.0-1.9","1016","11","pre","4","afternoon","2026-02-11","2026-02-23","2026-02-14T23:57:50.397Z","Mozilla/5.0 (iPhone; CPU iPhone OS 18_7 like Mac OS X) AppleWebKit/605.1.15 (KHTML, like Gecko) Mobile/15E148","358","632","420","","1879","<div class=""prompt"" style=""font-size:24px; margin-bottom:20px;"">Which word describes you more?</div>","1","pairing","10","sophisticated","witty","PosPos","7","50","positive","positive","43","witty","right","true"
"html-keyboard-response","22","35053","0.0-2.0-0.10","1016","11","pre","4","afternoon","2026-02-11","2026-02-23","2026-02-14T23:57:50.397Z","Mozilla/5.0 (iPhone; CPU iPhone OS 18_7 like Mac OS X) AppleWebKit/605.1.15 (KHTML, like Gecko) Mobile/15E148","358","632","420","","null","<div style=""font-size:60px;"">+</div>","null","fixation","","","","","","","","","","","",""
"html-button-response","23","36865","0.0-2.0-1.10","1016","11","pre","4","afternoon","2026-02-11","2026-02-23","2026-02-14T23:57:50.397Z","Mozilla/5.0 (iPhone; CPU iPhone OS 18_7 like Mac OS X) AppleWebKit/605.1.15 (KHTML, like Gecko) Mobile/15E148","358","632","420","","1809","<div class=""prompt"" style=""font-size:24px; margin-bottom:20px;"">Which word describes you more?</div>","1","pairing","11","hater","clever","PosNeg","32","53","negative","positive","21","clever","right","true"
"html-keyboard-response","24","37668","0.0-2.0-0.11","1016","11","pre","4","afternoon","2026-02-11","2026-02-23","2026-02-14T23:57:50.397Z","Mozilla/5.0 (iPhone; CPU iPhone OS 18_7 like Mac OS X) AppleWebKit/605.1.15 (KHTML, like Gecko) Mobile/15E148","358","632","420","","null","<div style=""font-size:60px;"">+</div>","null","fixation","","","","","","","","","","","",""
"html-button-response","25","39015","0.0-2.0-1.11","1016","11","pre","4","afternoon","2026-02-11","2026-02-23","2026-02-14T23:57:50.397Z","Mozilla/5.0 (iPhone; CPU iPhone OS 18_7 like Mac OS X) AppleWebKit/605.1.15 (KHTML, like Gecko) Mobile/15E148","358","632","420","","1345","<div class=""prompt"" style=""font-size:24px; margin-bottom:20px;"">Which word describes you more?</div>","0","pairing","12","safe","dull","PosNeg","85","0","positive","negative","85","safe","left","true"
"html-keyboard-response","26","39818","0.0-2.0-0.12","1016","11","pre","4","afternoon","2026-02-11","2026-02-23","2026-02-14T23:57:50.397Z","Mozilla/5.0 (iPhone; CPU iPhone OS 18_7 like Mac OS X) AppleWebKit/605.1.15 (KHTML, like Gecko) Mobile/15E148","358","632","420","","null","<div style=""font-size:60px;"">+</div>","null","fixation","","","","","","","","","","","",""
"html-button-response","27","42762","0.0-2.0-1.12","1016","11","pre","4","afternoon","2026-02-11","2026-02-23","2026-02-14T23:57:50.397Z","Mozilla/5.0 (iPhone; CPU iPhone OS 18_7 like Mac OS X) AppleWebKit/605.1.15 (KHTML, like Gecko) Mobile/15E148","358","632","420","","2942","<div class=""prompt"" style=""font-size:24px; margin-bottom:20px;"">Which word describes you more?</div>","0","pairing","13","gentle","fraud","PosNeg","9","49","positive","negative","40","gentle","left","true"
"html-keyboard-response","28","43564","0.0-2.0-0.13","1016","11","pre","4","afternoon","2026-02-11","2026-02-23","2026-02-14T23:57:50.397Z","Mozilla/5.0 (iPhone; CPU iPhone OS 18_7 like Mac OS X) AppleWebKit/605.1.15 (KHTML, like Gecko) Mobile/15E148","358","632","420","","null","<div style=""font-size:60px;"">+</div>","null","fixation","","","","","","","","","","","",""
"html-button-response","29","45728","0.0-2.0-1.13","1016","11","pre","4","afternoon","2026-02-11","2026-02-23","2026-02-14T23:57:50.397Z","Mozilla/5.0 (iPhone; CPU iPhone OS 18_7 like Mac OS X) AppleWebKit/605.1.15 (KHTML, like Gecko) Mobile/15E148","358","632","420","","2162","<div class=""prompt"" style=""font-size:24px; margin-bottom:20px;"">Which word describes you more?</div>","0","pairing","14","companion","sophisticated","PosPos","80","7","positive","positive","73","companion","left","true"
"html-keyboard-response","30","46530","0.0-2.0-0.14","1016","11","pre","4","afternoon","2026-02-11","2026-02-23","2026-02-14T23:57:50.397Z","Mozilla/5.0 (iPhone; CPU iPhone OS 18_7 like Mac OS X) AppleWebKit/605.1.15 (KHTML, like Gecko) Mobile/15E148","358","632","420","","null","<div style=""font-size:60px;"">+</div>","null","fixation","","","","","","","","","","","",""
"html-button-response","31","50512","0.0-2.0-1.14","1016","11","pre","4","afternoon","2026-02-11","2026-02-23","2026-02-14T23:57:50.397Z","Mozilla/5.0 (iPhone; CPU iPhone OS 18_7 like Mac OS X) AppleWebKit/605.1.15 (KHTML, like Gecko) Mobile/15E148","358","632","420","","3980","<div class=""prompt"" style=""font-size:24px; margin-bottom:20px;"">Which word describes you more?</div>","0","pairing","15","insecure","unlucky","NegNeg","49","10","negative","negative","39","insecure","left","true"
"html-keyboard-response","32","51315","0.0-2.0-0.15","1016","11","pre","4","afternoon","2026-02-11","2026-02-23","2026-02-14T23:57:50.397Z","Mozilla/5.0 (iPhone; CPU iPhone OS 18_7 like Mac OS X) AppleWebKit/605.1.15 (KHTML, like Gecko) Mobile/15E148","358","632","420","","null","<div style=""font-size:60px;"">+</div>","null","fixation","","","","","","","","","","","",""
"html-button-response","33","55359","0.0-2.0-1.15","1016","11","pre","4","afternoon","2026-02-11","2026-02-23","2026-02-14T23:57:50.397Z","Mozilla/5.0 (iPhone; CPU iPhone OS 18_7 like Mac OS X) AppleWebKit/605.1.15 (KHTML, like Gecko) Mobile/15E148","358","632","420","","4042","<div class=""prompt"" style=""font-size:24px; margin-bottom:20px;"">Which word describes you more?</div>","1","pairing","16","distressed","degenerate","NegNeg","13","0","negative","negative","13","degenerate","right","true"
"html-keyboard-response","34","56162","0.0-2.0-0.16","1016","11","pre","4","afternoon","2026-02-11","2026-02-23","2026-02-14T23:57:50.397Z","Mozilla/5.0 (iPhone; CPU iPhone OS 18_7 like Mac OS X) AppleWebKit/605.1.15 (KHTML, like Gecko) Mobile/15E148","358","632","420","","null","<div style=""font-size:60px;"">+</div>","null","fixation","","","","","","","","","","","",""
"html-button-response","35","58994","0.0-2.0-1.16","1016","11","pre","4","afternoon","2026-02-11","2026-02-23","2026-02-14T23:57:50.397Z","Mozilla/5.0 (iPhone; CPU iPhone OS 18_7 like Mac OS X) AppleWebKit/605.1.15 (KHTML, like Gecko) Mobile/15E148","358","632","420","","2830","<div class=""prompt"" style=""font-size:24px; margin-bottom:20px;"">Which word describes you more?</div>","1","pairing","17","unforgivable","bully","NegNeg","0","3","negative","negative","3","bully","right","true"
"html-keyboard-response","36","59797","0.0-2.0-0.17","1016","11","pre","4","afternoon","2026-02-11","2026-02-23","2026-02-14T23:57:50.397Z","Mozilla/5.0 (iPhone; CPU iPhone OS 18_7 like Mac OS X) AppleWebKit/605.1.15 (KHTML, like Gecko) Mobile/15E148","358","632","420","","null","<div style=""font-size:60px;"">+</div>","null","fixation","","","","","","","","","","","",""
"html-button-response","37","61810","0.0-2.0-1.17","1016","11","pre","4","afternoon","2026-02-11","2026-02-23","2026-02-14T23:57:50.397Z","Mozilla/5.0 (iPhone; CPU iPhone OS 18_7 like Mac OS X) AppleWebKit/605.1.15 (KHTML, like Gecko) Mobile/15E148","358","632","420","","2011","<div class=""prompt"" style=""font-size:24px; margin-bottom:20px;"">Which word describes you more?</div>","0","pairing","18","enthusiastic","champion","PosPos","95","59","positive","positive","36","enthusiastic","left","true"
"html-keyboard-response","38","62612","0.0-2.0-0.18","1016","11","pre","4","afternoon","2026-02-11","2026-02-23","2026-02-14T23:57:50.397Z","Mozilla/5.0 (iPhone; CPU iPhone OS 18_7 like Mac OS X) AppleWebKit/605.1.15 (KHTML, like Gecko) Mobile/15E148","358","632","420","","null","<div style=""font-size:60px;"">+</div>","null","fixation","","","","","","","","","","","",""
"html-button-response","39","64444","0.0-2.0-1.18","1016","11","pre","4","afternoon","2026-02-11","2026-02-23","2026-02-14T23:57:50.397Z","Mozilla/5.0 (iPhone; CPU iPhone OS 18_7 like Mac OS X) AppleWebKit/605.1.15 (KHTML, like Gecko) Mobile/15E148","358","632","420","","1830","<div class=""prompt"" style=""font-size:24px; margin-bottom:20px;"">Which word describes you more?</div>","1","pairing","19","garbage","irritating","NegNeg","0","71","negative","negative","71","irritating","right","true"
"html-keyboard-response","40","65247","0.0-2.0-0.19","1016","11","pre","4","afternoon","2026-02-11","2026-02-23","2026-02-14T23:57:50.397Z","Mozilla/5.0 (iPhone; CPU iPhone OS 18_7 like Mac OS X) AppleWebKit/605.1.15 (KHTML, like Gecko) Mobile/15E148","358","632","420","","null","<div style=""font-size:60px;"">+</div>","null","fixation","","","","","","","","","","","",""
"html-button-response","41","68742","0.0-2.0-1.19","1016","11","pre","4","afternoon","2026-02-11","2026-02-23","2026-02-14T23:57:50.397Z","Mozilla/5.0 (iPhone; CPU iPhone OS 18_7 like Mac OS X) AppleWebKit/605.1.15 (KHTML, like Gecko) Mobile/15E148","358","632","420","","3493","<div class=""prompt"" style=""font-size:24px; margin-bottom:20px;"">Which word describes you more?</div>","0","pairing","20","hopeful","unique","PosPos","91","78","positive","positive","13","hopeful","left","true"
"html-keyboard-response","42","69545","0.0-2.0-0.20","1016","11","pre","4","afternoon","2026-02-11","2026-02-23","2026-02-14T23:57:50.397Z","Mozilla/5.0 (iPhone; CPU iPhone OS 18_7 like Mac OS X) AppleWebKit/605.1.15 (KHTML, like Gecko) Mobile/15E148","358","632","420","","null","<div style=""font-size:60px;"">+</div>","null","fixation","","","","","","","","","","","",""
"html-button-response","43","71274","0.0-2.0-1.20","1016","11","pre","4","afternoon","2026-02-11","2026-02-23","2026-02-14T23:57:50.397Z","Mozilla/5.0 (iPhone; CPU iPhone OS 18_7 like Mac OS X) AppleWebKit/605.1.15 (KHTML, like Gecko) Mobile/15E148","358","632","420","","1727","<div class=""prompt"" style=""font-size:24px; margin-bottom:20px;"">Which word describes you more?</div>","1","pairing","21","dull","honest","PosNeg","0","68","negative","positive","68","honest","right","true"
"html-keyboard-response","44","72076","0.0-2.0-0.21","1016","11","pre","4","afternoon","2026-02-11","2026-02-23","2026-02-14T23:57:50.397Z","Mozilla/5.0 (iPhone; CPU iPhone OS 18_7 like Mac OS X) AppleWebKit/605.1.15 (KHTML, like Gecko) Mobile/15E148","358","632","420","","null","<div style=""font-size:60px;"">+</div>","null","fixation","","","","","","","","","","","",""
"html-button-response","45","74606","0.0-2.0-1.21","1016","11","pre","4","afternoon","2026-02-11","2026-02-23","2026-02-14T23:57:50.397Z","Mozilla/5.0 (iPhone; CPU iPhone OS 18_7 like Mac OS X) AppleWebKit/605.1.15 (KHTML, like Gecko) Mobile/15E148","358","632","420","","2528","<div class=""prompt"" style=""font-size:24px; margin-bottom:20px;"">Which word describes you more?</div>","1","pairing","22","sloppy","admired","PosNeg","8","59","negative","positive","51","admired","right","true"
"html-keyboard-response","46","75409","0.0-2.0-0.22","1016","11","pre","4","afternoon","2026-02-11","2026-02-23","2026-02-14T23:57:50.397Z","Mozilla/5.0 (iPhone; CPU iPhone OS 18_7 like Mac OS X) AppleWebKit/605.1.15 (KHTML, like Gecko) Mobile/15E148","358","632","420","","null","<div style=""font-size:60px;"">+</div>","null","fixation","","","","","","","","","","","",""
"html-button-response","47","77155","0.0-2.0-1.22","1016","11","pre","4","afternoon","2026-02-11","2026-02-23","2026-02-14T23:57:50.397Z","Mozilla/5.0 (iPhone; CPU iPhone OS 18_7 like Mac OS X) AppleWebKit/605.1.15 (KHTML, like Gecko) Mobile/15E148","358","632","420","","1744","<div class=""prompt"" style=""font-size:24px; margin-bottom:20px;"">Which word describes you more?</div>","1","pairing","23","menace","charming","PosNeg","50","41","negative","positive","9","charming","right","true"
"html-keyboard-response","48","77957","0.0-2.0-0.23","1016","11","pre","4","afternoon","2026-02-11","2026-02-23","2026-02-14T23:57:50.397Z","Mozilla/5.0 (iPhone; CPU iPhone OS 18_7 like Mac OS X) AppleWebKit/605.1.15 (KHTML, like Gecko) Mobile/15E148","358","632","420","","null","<div style=""font-size:60px;"">+</div>","null","fixation","","","","","","","","","","","",""
"html-button-response","49","80057","0.0-2.0-1.23","1016","11","pre","4","afternoon","2026-02-11","2026-02-23","2026-02-14T23:57:50.397Z","Mozilla/5.0 (iPhone; CPU iPhone OS 18_7 like Mac OS X) AppleWebKit/605.1.15 (KHTML, like Gecko) Mobile/15E148","358","632","420","","2097","<div class=""prompt"" style=""font-size:24px; margin-bottom:20px;"">Which word describes you more?</div>","0","pairing","24","irritating","easygoing","PosNeg","71","34","negative","positive","37","irritating","left","true"
"instructions","50","81689","0.0-3.0","1016","11","pre","4","afternoon","2026-02-11","2026-02-23","2026-02-14T23:57:50.397Z","Mozilla/5.0 (iPhone; CPU iPhone OS 18_7 like Mac OS X) AppleWebKit/605.1.15 (KHTML, like Gecko) Mobile/15E148","358","632","420","[{""page_index"":0,""viewing_time"":1630}]","1630","","","","","","","","","","","","","","",""
