"trial_type","trial_index","time_elapsed","internal_node_id","PUNS_ID","session_number","session_phase","session_day","session_slot","ema_start_date","ema_post_start_date","experiment_start","browser","screen_width","screen_height","timezone_offset","view_history","rt","stimulus","response","which_experiment_phase","trial_number","left_word","right_word","valence","left_base_rating","right_base_rating","left_valence","right_valence","abs_diff","participant_response","chosen_side","valid_response"
"pavlovia","0","1569","0.0-0.0","1067","8","pre","3","afternoon","2026-04-08","2026-04-21","2026-04-10T17:21:37.761Z","Mozilla/5.0 (iPhone; CPU iPhone OS 18_7 like Mac OS X) AppleWebKit/605.1.15 (KHTML, like Gecko) Mobile/15E148","358","632","240","","","","","","","","","","","","","","","","",""
"instructions","1","5452","0.0-1.0","1067","8","pre","3","afternoon","2026-04-08","2026-04-21","2026-04-10T17:21:37.761Z","Mozilla/5.0 (iPhone; CPU iPhone OS 18_7 like Mac OS X) AppleWebKit/605.1.15 (KHTML, like Gecko) Mobile/15E148","358","632","240","[{""page_index"":0,""viewing_time"":850},{""page_index"":1,""viewing_time"":521},{""page_index"":2,""viewing_time"":1584},{""page_index"":3,""viewing_time"":916}]","3872","","","","","","","","","","","","","","",""
"html-keyboard-response","2","6257","0.0-2.0-0.0","1067","8","pre","3","afternoon","2026-04-08","2026-04-21","2026-04-10T17:21:37.761Z","Mozilla/5.0 (iPhone; CPU iPhone OS 18_7 like Mac OS X) AppleWebKit/605.1.15 (KHTML, like Gecko) Mobile/15E148","358","632","240","","null","<div style=""font-size:60px;"">+</div>","null","fixation","","","","","","","","","","","",""
"html-button-response","3","7370","0.0-2.0-1.0","1067","8","pre","3","afternoon","2026-04-08","2026-04-21","2026-04-10T17:21:37.761Z","Mozilla/5.0 (iPhone; CPU iPhone OS 18_7 like Mac OS X) AppleWebKit/605.1.15 (KHTML, like Gecko) Mobile/15E148","358","632","240","","1105","<div class=""prompt"" style=""font-size:24px; margin-bottom:20px;"">Which word describes you more?</div>","0","pairing","1","helper","inspirational","PosPos","85","46","positive","positive","39","helper","left","true"
"html-keyboard-response","4","8173","0.0-2.0-0.1","1067","8","pre","3","afternoon","2026-04-08","2026-04-21","2026-04-10T17:21:37.761Z","Mozilla/5.0 (iPhone; CPU iPhone OS 18_7 like Mac OS X) AppleWebKit/605.1.15 (KHTML, like Gecko) Mobile/15E148","358","632","240","","null","<div style=""font-size:60px;"">+</div>","null","fixation","","","","","","","","","","","",""
"html-button-response","5","9468","0.0-2.0-1.1","1067","8","pre","3","afternoon","2026-04-08","2026-04-21","2026-04-10T17:21:37.761Z","Mozilla/5.0 (iPhone; CPU iPhone OS 18_7 like Mac OS X) AppleWebKit/605.1.15 (KHTML, like Gecko) Mobile/15E148","358","632","240","","1289","<div class=""prompt"" style=""font-size:24px; margin-bottom:20px;"">Which word describes you more?</div>","1","pairing","2","irritating","reliable","PosNeg","72","69","negative","positive","3","reliable","right","true"
"html-keyboard-response","6","10271","0.0-2.0-0.2","1067","8","pre","3","afternoon","2026-04-08","2026-04-21","2026-04-10T17:21:37.761Z","Mozilla/5.0 (iPhone; CPU iPhone OS 18_7 like Mac OS X) AppleWebKit/605.1.15 (KHTML, like Gecko) Mobile/15E148","358","632","240","","null","<div style=""font-size:60px;"">+</div>","null","fixation","","","","","","","","","","","",""
"html-button-response","7","11301","0.0-2.0-1.2","1067","8","pre","3","afternoon","2026-04-08","2026-04-21","2026-04-10T17:21:37.761Z","Mozilla/5.0 (iPhone; CPU iPhone OS 18_7 like Mac OS X) AppleWebKit/605.1.15 (KHTML, like Gecko) Mobile/15E148","358","632","240","","1027","<div class=""prompt"" style=""font-size:24px; margin-bottom:20px;"">Which word describes you more?</div>","1","pairing","3","unwanted","successful","PosNeg","0","77","negative","positive","77","successful","right","true"
"html-keyboard-response","8","12103","0.0-2.0-0.3","1067","8","pre","3","afternoon","2026-04-08","2026-04-21","2026-04-10T17:21:37.761Z","Mozilla/5.0 (iPhone; CPU iPhone OS 18_7 like Mac OS X) AppleWebKit/605.1.15 (KHTML, like Gecko) Mobile/15E148","358","632","240","","null","<div style=""font-size:60px;"">+</div>","null","fixation","","","","","","","","","","","",""
"html-button-response","9","13534","0.0-2.0-1.3","1067","8","pre","3","afternoon","2026-04-08","2026-04-21","2026-04-10T17:21:37.761Z","Mozilla/5.0 (iPhone; CPU iPhone OS 18_7 like Mac OS X) AppleWebKit/605.1.15 (KHTML, like Gecko) Mobile/15E148","358","632","240","","1428","<div class=""prompt"" style=""font-size:24px; margin-bottom:20px;"">Which word describes you more?</div>","1","pairing","4","traitor","pest","NegNeg","1","50","negative","negative","49","pest","right","true"
"html-keyboard-response","10","14337","0.0-2.0-0.4","1067","8","pre","3","afternoon","2026-04-08","2026-04-21","2026-04-10T17:21:37.761Z","Mozilla/5.0 (iPhone; CPU iPhone OS 18_7 like Mac OS X) AppleWebKit/605.1.15 (KHTML, like Gecko) Mobile/15E148","358","632","240","","null","<div style=""font-size:60px;"">+</div>","null","fixation","","","","","","","","","","","",""
"html-button-response","11","15468","0.0-2.0-1.4","1067","8","pre","3","afternoon","2026-04-08","2026-04-21","2026-04-10T17:21:37.761Z","Mozilla/5.0 (iPhone; CPU iPhone OS 18_7 like Mac OS X) AppleWebKit/605.1.15 (KHTML, like Gecko) Mobile/15E148","358","632","240","","1129","<div class=""prompt"" style=""font-size:24px; margin-bottom:20px;"">Which word describes you more?</div>","0","pairing","5","learner","decisive","PosPos","100","30","positive","positive","70","learner","left","true"
"html-keyboard-response","12","16271","0.0-2.0-0.5","1067","8","pre","3","afternoon","2026-04-08","2026-04-21","2026-04-10T17:21:37.761Z","Mozilla/5.0 (iPhone; CPU iPhone OS 18_7 like Mac OS X) AppleWebKit/605.1.15 (KHTML, like Gecko) Mobile/15E148","358","632","240","","null","<div style=""font-size:60px;"">+</div>","null","fixation","","","","","","","","","","","",""
"html-button-response","13","17267","0.0-2.0-1.5","1067","8","pre","3","afternoon","2026-04-08","2026-04-21","2026-04-10T17:21:37.761Z","Mozilla/5.0 (iPhone; CPU iPhone OS 18_7 like Mac OS X) AppleWebKit/605.1.15 (KHTML, like Gecko) Mobile/15E148","358","632","240","","994","<div class=""prompt"" style=""font-size:24px; margin-bottom:20px;"">Which word describes you more?</div>","0","pairing","6","authentic","malicious","PosNeg","92","3","positive","negative","89","authentic","left","true"
"html-keyboard-response","14","18070","0.0-2.0-0.6","1067","8","pre","3","afternoon","2026-04-08","2026-04-21","2026-04-10T17:21:37.761Z","Mozilla/5.0 (iPhone; CPU iPhone OS 18_7 like Mac OS X) AppleWebKit/605.1.15 (KHTML, like Gecko) Mobile/15E148","358","632","240","","null","<div style=""font-size:60px;"">+</div>","null","fixation","","","","","","","","","","","",""
"html-button-response","15","21251","0.0-2.0-1.6","1067","8","pre","3","afternoon","2026-04-08","2026-04-21","2026-04-10T17:21:37.761Z","Mozilla/5.0 (iPhone; CPU iPhone OS 18_7 like Mac OS X) AppleWebKit/605.1.15 (KHTML, like Gecko) Mobile/15E148","358","632","240","","3178","<div class=""prompt"" style=""font-size:24px; margin-bottom:20px;"">Which word describes you more?</div>","0","pairing","7","disastrous","traitor","NegNeg","23","1","negative","negative","22","disastrous","left","true"
"html-keyboard-response","16","22056","0.0-2.0-0.7","1067","8","pre","3","afternoon","2026-04-08","2026-04-21","2026-04-10T17:21:37.761Z","Mozilla/5.0 (iPhone; CPU iPhone OS 18_7 like Mac OS X) AppleWebKit/605.1.15 (KHTML, like Gecko) Mobile/15E148","358","632","240","","null","<div style=""font-size:60px;"">+</div>","null","fixation","","","","","","","","","","","",""
"html-button-response","17","23348","0.0-2.0-1.7","1067","8","pre","3","afternoon","2026-04-08","2026-04-21","2026-04-10T17:21:37.761Z","Mozilla/5.0 (iPhone; CPU iPhone OS 18_7 like Mac OS X) AppleWebKit/605.1.15 (KHTML, like Gecko) Mobile/15E148","358","632","240","","1290","<div class=""prompt"" style=""font-size:24px; margin-bottom:20px;"">Which word describes you more?</div>","0","pairing","8","decisive","prick","PosNeg","30","74","positive","negative","44","decisive","left","true"
"html-keyboard-response","18","24151","0.0-2.0-0.8","1067","8","pre","3","afternoon","2026-04-08","2026-04-21","2026-04-10T17:21:37.761Z","Mozilla/5.0 (iPhone; CPU iPhone OS 18_7 like Mac OS X) AppleWebKit/605.1.15 (KHTML, like Gecko) Mobile/15E148","358","632","240","","null","<div style=""font-size:60px;"">+</div>","null","fixation","","","","","","","","","","","",""
"html-button-response","19","25349","0.0-2.0-1.8","1067","8","pre","3","afternoon","2026-04-08","2026-04-21","2026-04-10T17:21:37.761Z","Mozilla/5.0 (iPhone; CPU iPhone OS 18_7 like Mac OS X) AppleWebKit/605.1.15 (KHTML, like Gecko) Mobile/15E148","358","632","240","","1195","<div class=""prompt"" style=""font-size:24px; margin-bottom:20px;"">Which word describes you more?</div>","1","pairing","9","disastrous","alluring","PosNeg","23","44","negative","positive","21","alluring","right","true"
"html-keyboard-response","20","26151","0.0-2.0-0.9","1067","8","pre","3","afternoon","2026-04-08","2026-04-21","2026-04-10T17:21:37.761Z","Mozilla/5.0 (iPhone; CPU iPhone OS 18_7 like Mac OS X) AppleWebKit/605.1.15 (KHTML, like Gecko) Mobile/15E148","358","632","240","","null","<div style=""font-size:60px;"">+</div>","null","fixation","","","","","","","","","","","",""
"html-button-response","21","27235","0.0-2.0-1.9","1067","8","pre","3","afternoon","2026-04-08","2026-04-21","2026-04-10T17:21:37.761Z","Mozilla/5.0 (iPhone; CPU iPhone OS 18_7 like Mac OS X) AppleWebKit/605.1.15 (KHTML, like Gecko) Mobile/15E148","358","632","240","","1082","<div class=""prompt"" style=""font-size:24px; margin-bottom:20px;"">Which word describes you more?</div>","0","pairing","10","spirited","anxious","PosNeg","51","29","positive","negative","22","spirited","left","true"
"html-keyboard-response","22","28038","0.0-2.0-0.10","1067","8","pre","3","afternoon","2026-04-08","2026-04-21","2026-04-10T17:21:37.761Z","Mozilla/5.0 (iPhone; CPU iPhone OS 18_7 like Mac OS X) AppleWebKit/605.1.15 (KHTML, like Gecko) Mobile/15E148","358","632","240","","null","<div style=""font-size:60px;"">+</div>","null","fixation","","","","","","","","","","","",""
"html-button-response","23","28920","0.0-2.0-1.10","1067","8","pre","3","afternoon","2026-04-08","2026-04-21","2026-04-10T17:21:37.761Z","Mozilla/5.0 (iPhone; CPU iPhone OS 18_7 like Mac OS X) AppleWebKit/605.1.15 (KHTML, like Gecko) Mobile/15E148","358","632","240","","879","<div class=""prompt"" style=""font-size:24px; margin-bottom:20px;"">Which word describes you more?</div>","0","pairing","11","menace","creep","NegNeg","78","1","negative","negative","77","menace","left","true"
"html-keyboard-response","24","29722","0.0-2.0-0.11","1067","8","pre","3","afternoon","2026-04-08","2026-04-21","2026-04-10T17:21:37.761Z","Mozilla/5.0 (iPhone; CPU iPhone OS 18_7 like Mac OS X) AppleWebKit/605.1.15 (KHTML, like Gecko) Mobile/15E148","358","632","240","","null","<div style=""font-size:60px;"">+</div>","null","fixation","","","","","","","","","","","",""
"html-button-response","25","30719","0.0-2.0-1.11","1067","8","pre","3","afternoon","2026-04-08","2026-04-21","2026-04-10T17:21:37.761Z","Mozilla/5.0 (iPhone; CPU iPhone OS 18_7 like Mac OS X) AppleWebKit/605.1.15 (KHTML, like Gecko) Mobile/15E148","358","632","240","","994","<div class=""prompt"" style=""font-size:24px; margin-bottom:20px;"">Which word describes you more?</div>","1","pairing","12","decisive","smiley","PosPos","30","100","positive","positive","70","smiley","right","true"
"html-keyboard-response","26","31521","0.0-2.0-0.12","1067","8","pre","3","afternoon","2026-04-08","2026-04-21","2026-04-10T17:21:37.761Z","Mozilla/5.0 (iPhone; CPU iPhone OS 18_7 like Mac OS X) AppleWebKit/605.1.15 (KHTML, like Gecko) Mobile/15E148","358","632","240","","null","<div style=""font-size:60px;"">+</div>","null","fixation","","","","","","","","","","","",""
"html-button-response","27","32753","0.0-2.0-1.12","1067","8","pre","3","afternoon","2026-04-08","2026-04-21","2026-04-10T17:21:37.761Z","Mozilla/5.0 (iPhone; CPU iPhone OS 18_7 like Mac OS X) AppleWebKit/605.1.15 (KHTML, like Gecko) Mobile/15E148","358","632","240","","1227","<div class=""prompt"" style=""font-size:24px; margin-bottom:20px;"">Which word describes you more?</div>","0","pairing","13","disloyal","adorable","PosNeg","1","59","negative","positive","58","disloyal","left","true"
"html-keyboard-response","28","33557","0.0-2.0-0.13","1067","8","pre","3","afternoon","2026-04-08","2026-04-21","2026-04-10T17:21:37.761Z","Mozilla/5.0 (iPhone; CPU iPhone OS 18_7 like Mac OS X) AppleWebKit/605.1.15 (KHTML, like Gecko) Mobile/15E148","358","632","240","","null","<div style=""font-size:60px;"">+</div>","null","fixation","","","","","","","","","","","",""
"html-button-response","29","35586","0.0-2.0-1.13","1067","8","pre","3","afternoon","2026-04-08","2026-04-21","2026-04-10T17:21:37.761Z","Mozilla/5.0 (iPhone; CPU iPhone OS 18_7 like Mac OS X) AppleWebKit/605.1.15 (KHTML, like Gecko) Mobile/15E148","358","632","240","","2025","<div class=""prompt"" style=""font-size:24px; margin-bottom:20px;"">Which word describes you more?</div>","1","pairing","14","blissful","hesitant","PosNeg","68","30","positive","negative","38","hesitant","right","true"
"html-keyboard-response","30","36389","0.0-2.0-0.14","1067","8","pre","3","afternoon","2026-04-08","2026-04-21","2026-04-10T17:21:37.761Z","Mozilla/5.0 (iPhone; CPU iPhone OS 18_7 like Mac OS X) AppleWebKit/605.1.15 (KHTML, like Gecko) Mobile/15E148","358","632","240","","null","<div style=""font-size:60px;"">+</div>","null","fixation","","","","","","","","","","","",""
"html-button-response","31","38085","0.0-2.0-1.14","1067","8","pre","3","afternoon","2026-04-08","2026-04-21","2026-04-10T17:21:37.761Z","Mozilla/5.0 (iPhone; CPU iPhone OS 18_7 like Mac OS X) AppleWebKit/605.1.15 (KHTML, like Gecko) Mobile/15E148","358","632","240","","1695","<div class=""prompt"" style=""font-size:24px; margin-bottom:20px;"">Which word describes you more?</div>","1","pairing","15","learner","humorous","PosPos","100","70","positive","positive","30","humorous","right","true"
"html-keyboard-response","32","38888","0.0-2.0-0.15","1067","8","pre","3","afternoon","2026-04-08","2026-04-21","2026-04-10T17:21:37.761Z","Mozilla/5.0 (iPhone; CPU iPhone OS 18_7 like Mac OS X) AppleWebKit/605.1.15 (KHTML, like Gecko) Mobile/15E148","358","632","240","","null","<div style=""font-size:60px;"">+</div>","null","fixation","","","","","","","","","","","",""
"html-button-response","33","40970","0.0-2.0-1.15","1067","8","pre","3","afternoon","2026-04-08","2026-04-21","2026-04-10T17:21:37.761Z","Mozilla/5.0 (iPhone; CPU iPhone OS 18_7 like Mac OS X) AppleWebKit/605.1.15 (KHTML, like Gecko) Mobile/15E148","358","632","240","","2080","<div class=""prompt"" style=""font-size:24px; margin-bottom:20px;"">Which word describes you more?</div>","1","pairing","16","irresponsible","boring","NegNeg","41","0","negative","negative","41","boring","right","true"
"html-keyboard-response","34","41773","0.0-2.0-0.16","1067","8","pre","3","afternoon","2026-04-08","2026-04-21","2026-04-10T17:21:37.761Z","Mozilla/5.0 (iPhone; CPU iPhone OS 18_7 like Mac OS X) AppleWebKit/605.1.15 (KHTML, like Gecko) Mobile/15E148","358","632","240","","null","<div style=""font-size:60px;"">+</div>","null","fixation","","","","","","","","","","","",""
"html-button-response","35","44069","0.0-2.0-1.16","1067","8","pre","3","afternoon","2026-04-08","2026-04-21","2026-04-10T17:21:37.761Z","Mozilla/5.0 (iPhone; CPU iPhone OS 18_7 like Mac OS X) AppleWebKit/605.1.15 (KHTML, like Gecko) Mobile/15E148","358","632","240","","2294","<div class=""prompt"" style=""font-size:24px; margin-bottom:20px;"">Which word describes you more?</div>","0","pairing","17","awkward","legendary","PosNeg","74","36","negative","positive","38","awkward","left","true"
"html-keyboard-response","36","44872","0.0-2.0-0.17","1067","8","pre","3","afternoon","2026-04-08","2026-04-21","2026-04-10T17:21:37.761Z","Mozilla/5.0 (iPhone; CPU iPhone OS 18_7 like Mac OS X) AppleWebKit/605.1.15 (KHTML, like Gecko) Mobile/15E148","358","632","240","","null","<div style=""font-size:60px;"">+</div>","null","fixation","","","","","","","","","","","",""
"html-button-response","37","47002","0.0-2.0-1.17","1067","8","pre","3","afternoon","2026-04-08","2026-04-21","2026-04-10T17:21:37.761Z","Mozilla/5.0 (iPhone; CPU iPhone OS 18_7 like Mac OS X) AppleWebKit/605.1.15 (KHTML, like Gecko) Mobile/15E148","358","632","240","","2128","<div class=""prompt"" style=""font-size:24px; margin-bottom:20px;"">Which word describes you more?</div>","1","pairing","18","legendary","flawless","PosPos","36","70","positive","positive","34","flawless","right","true"
"html-keyboard-response","38","47805","0.0-2.0-0.18","1067","8","pre","3","afternoon","2026-04-08","2026-04-21","2026-04-10T17:21:37.761Z","Mozilla/5.0 (iPhone; CPU iPhone OS 18_7 like Mac OS X) AppleWebKit/605.1.15 (KHTML, like Gecko) Mobile/15E148","358","632","240","","null","<div style=""font-size:60px;"">+</div>","null","fixation","","","","","","","","","","","",""
"html-button-response","39","48936","0.0-2.0-1.18","1067","8","pre","3","afternoon","2026-04-08","2026-04-21","2026-04-10T17:21:37.761Z","Mozilla/5.0 (iPhone; CPU iPhone OS 18_7 like Mac OS X) AppleWebKit/605.1.15 (KHTML, like Gecko) Mobile/15E148","358","632","240","","1129","<div class=""prompt"" style=""font-size:24px; margin-bottom:20px;"">Which word describes you more?</div>","1","pairing","19","goodwilled","attractive","PosPos","79","88","positive","positive","9","attractive","right","true"
"html-keyboard-response","40","49739","0.0-2.0-0.19","1067","8","pre","3","afternoon","2026-04-08","2026-04-21","2026-04-10T17:21:37.761Z","Mozilla/5.0 (iPhone; CPU iPhone OS 18_7 like Mac OS X) AppleWebKit/605.1.15 (KHTML, like Gecko) Mobile/15E148","358","632","240","","null","<div style=""font-size:60px;"">+</div>","null","fixation","","","","","","","","","","","",""
"html-button-response","41","51303","0.0-2.0-1.19","1067","8","pre","3","afternoon","2026-04-08","2026-04-21","2026-04-10T17:21:37.761Z","Mozilla/5.0 (iPhone; CPU iPhone OS 18_7 like Mac OS X) AppleWebKit/605.1.15 (KHTML, like Gecko) Mobile/15E148","358","632","240","","1561","<div class=""prompt"" style=""font-size:24px; margin-bottom:20px;"">Which word describes you more?</div>","1","pairing","20","dull","awkward","NegNeg","0","74","negative","negative","74","awkward","right","true"
"html-keyboard-response","42","52105","0.0-2.0-0.20","1067","8","pre","3","afternoon","2026-04-08","2026-04-21","2026-04-10T17:21:37.761Z","Mozilla/5.0 (iPhone; CPU iPhone OS 18_7 like Mac OS X) AppleWebKit/605.1.15 (KHTML, like Gecko) Mobile/15E148","358","632","240","","null","<div style=""font-size:60px;"">+</div>","null","fixation","","","","","","","","","","","",""
"html-button-response","43","54005","0.0-2.0-1.20","1067","8","pre","3","afternoon","2026-04-08","2026-04-21","2026-04-10T17:21:37.761Z","Mozilla/5.0 (iPhone; CPU iPhone OS 18_7 like Mac OS X) AppleWebKit/605.1.15 (KHTML, like Gecko) Mobile/15E148","358","632","240","","1898","<div class=""prompt"" style=""font-size:24px; margin-bottom:20px;"">Which word describes you more?</div>","0","pairing","21","skilled","awkward","PosNeg","67","74","positive","negative","7","skilled","left","true"
"html-keyboard-response","44","54807","0.0-2.0-0.21","1067","8","pre","3","afternoon","2026-04-08","2026-04-21","2026-04-10T17:21:37.761Z","Mozilla/5.0 (iPhone; CPU iPhone OS 18_7 like Mac OS X) AppleWebKit/605.1.15 (KHTML, like Gecko) Mobile/15E148","358","632","240","","null","<div style=""font-size:60px;"">+</div>","null","fixation","","","","","","","","","","","",""
"html-button-response","45","55786","0.0-2.0-1.21","1067","8","pre","3","afternoon","2026-04-08","2026-04-21","2026-04-10T17:21:37.761Z","Mozilla/5.0 (iPhone; CPU iPhone OS 18_7 like Mac OS X) AppleWebKit/605.1.15 (KHTML, like Gecko) Mobile/15E148","358","632","240","","976","<div class=""prompt"" style=""font-size:24px; margin-bottom:20px;"">Which word describes you more?</div>","0","pairing","22","tolerant","distressed","PosNeg","71","1","positive","negative","70","tolerant","left","true"
"html-keyboard-response","46","56589","0.0-2.0-0.22","1067","8","pre","3","afternoon","2026-04-08","2026-04-21","2026-04-10T17:21:37.761Z","Mozilla/5.0 (iPhone; CPU iPhone OS 18_7 like Mac OS X) AppleWebKit/605.1.15 (KHTML, like Gecko) Mobile/15E148","358","632","240","","null","<div style=""font-size:60px;"">+</div>","null","fixation","","","","","","","","","","","",""
"html-button-response","47","58770","0.0-2.0-1.22","1067","8","pre","3","afternoon","2026-04-08","2026-04-21","2026-04-10T17:21:37.761Z","Mozilla/5.0 (iPhone; CPU iPhone OS 18_7 like Mac OS X) AppleWebKit/605.1.15 (KHTML, like Gecko) Mobile/15E148","358","632","240","","2179","<div class=""prompt"" style=""font-size:24px; margin-bottom:20px;"">Which word describes you more?</div>","1","pairing","23","violent","quitter","NegNeg","13","33","negative","negative","20","quitter","right","true"
"html-keyboard-response","48","59573","0.0-2.0-0.23","1067","8","pre","3","afternoon","2026-04-08","2026-04-21","2026-04-10T17:21:37.761Z","Mozilla/5.0 (iPhone; CPU iPhone OS 18_7 like Mac OS X) AppleWebKit/605.1.15 (KHTML, like Gecko) Mobile/15E148","358","632","240","","null","<div style=""font-size:60px;"">+</div>","null","fixation","","","","","","","","","","","",""
"html-button-response","49","60816","0.0-2.0-1.23","1067","8","pre","3","afternoon","2026-04-08","2026-04-21","2026-04-10T17:21:37.761Z","Mozilla/5.0 (iPhone; CPU iPhone OS 18_7 like Mac OS X) AppleWebKit/605.1.15 (KHTML, like Gecko) Mobile/15E148","358","632","240","","1241","<div class=""prompt"" style=""font-size:24px; margin-bottom:20px;"">Which word describes you more?</div>","0","pairing","24","clever","worthless","PosNeg","66","0","positive","negative","66","clever","left","true"
"instructions","50","61737","0.0-3.0","1067","8","pre","3","afternoon","2026-04-08","2026-04-21","2026-04-10T17:21:37.761Z","Mozilla/5.0 (iPhone; CPU iPhone OS 18_7 like Mac OS X) AppleWebKit/605.1.15 (KHTML, like Gecko) Mobile/15E148","358","632","240","[{""page_index"":0,""viewing_time"":919}]","919","","","","","","","","","","","","","","",""
